subject2	subject	TRIAL_INDEX	audio_file	KEYPRESS	RT	bias2	step	resp1	order	exclude	bias	session1	F8	201	SIGNblend_30s70h.wav	a	1233	CAT_S	2	1	S_SH	1	2	11	F8	202	SIGNblend_60s40h.wav	a	1509	CAT_S	5	1	S_SH	1	2	11	F8	203	SIGNblend_50s50h.wav	a	1152	CAT_S	4	1	S_SH	1	2	11	F8	204	SIGNblend_40s60h.wav	a	1070	CAT_S	3	1	S_SH	1	2	11	F8	205	SIGNblend_50s50h.wav	a	1138	CAT_S	4	1	S_SH	1	2	11	F8	206	SIGNblend_60s40h.wav	a	1142	CAT_S	5	1	S_SH	1	2	11	F8	207	SIGNblend_70s30h.wav	a	1161	CAT_S	6	1	S_SH	1	2	11	F8	208	SIGNblend_20s80h.wav	l	1189	CAT_S	1	0	S_SH	1	2	11	F8	209	SIGNblend_30s70h.wav	l	1026	CAT_S	2	0	S_SH	1	2	11	F8	210	SIGNblend_70s30h.wav	a	1062	CAT_S	6	1	S_SH	1	2	11	F8	211	SIGNblend_20s80h.wav	l	1081	CAT_S	1	0	S_SH	1	2	11	F8	212	SIGNblend_60s40h.wav	a	1030	CAT_S	5	1	S_SH	1	2	11	F8	213	SIGNblend_40s60h.wav	a	1002	CAT_S	3	1	S_SH	1	2	11	F8	214	SIGNblend_70s30h.wav	a	1031	CAT_S	6	1	S_SH	1	2	11	F8	215	SIGNblend_50s50h.wav	a	970	CAT_S	4	1	S_SH	1	2	11	F8	216	SIGNblend_40s60h.wav	a	1071	CAT_S	3	1	S_SH	1	2	11	F8	217	SIGNblend_30s70h.wav	a	1050	CAT_S	2	1	S_SH	1	2	11	F8	218	SIGNblend_70s30h.wav	a	943	CAT_S	6	1	S_SH	1	2	11	F8	219	SIGNblend_80s20h.wav	a	922	CAT_S	7	1	S_SH	1	2	11	F8	220	SIGNblend_50s50h.wav	a	934	CAT_S	4	1	S_SH	1	2	11	F8	221	SIGNblend_30s70h.wav	a	1122	CAT_S	2	1	S_SH	1	2	11	F8	222	SIGNblend_50s50h.wav	a	1119	CAT_S	4	1	S_SH	1	2	11	F8	223	SIGNblend_30s70h.wav	a	1115	CAT_S	2	1	S_SH	1	2	11	F8	224	SIGNblend_50s50h.wav	a	1070	CAT_S	4	1	S_SH	1	2	11	F8	225	SIGNblend_60s40h.wav	a	1227	CAT_S	5	1	S_SH	1	2	11	F8	226	SIGNblend_70s30h.wav	a	1016	CAT_S	6	1	S_SH	1	2	11	F8	227	SIGNblend_60s40h.wav	a	1035	CAT_S	5	1	S_SH	1	2	11	F8	228	SIGNblend_40s60h.wav	a	1015	CAT_S	3	1	S_SH	1	2	11	F8	229	SIGNblend_20s80h.wav	l	1076	CAT_S	1	0	S_SH	1	2	11	F8	230	SIGNblend_40s60h.wav	a	960	CAT_S	3	1	S_SH	1	2	11	F8	231	SIGNblend_30s70h.wav	l	1379	CAT_S	2	0	S_SH	1	2	11	F8	232	SIGNblend_20s80h.wav	l	1285	CAT_S	1	0	S_SH	1	2	11	F8	233	SIGNblend_40s60h.wav	a	1095	CAT_S	3	1	S_SH	1	2	11	F8	234	SIGNblend_80s20h.wav	a	1053	CAT_S	7	1	S_SH	1	2	11	F8	235	SIGNblend_30s70h.wav	l	913	CAT_S	2	0	S_SH	1	2	11	F8	236	SIGNblend_80s20h.wav	a	1101	CAT_S	7	1	S_SH	1	2	11	F8	237	SIGNblend_30s70h.wav	l	977	CAT_S	2	0	S_SH	1	2	11	F8	238	SIGNblend_50s50h.wav	a	1101	CAT_S	4	1	S_SH	1	2	11	F8	239	SIGNblend_40s60h.wav	a	1001	CAT_S	3	1	S_SH	1	2	11	F8	240	SIGNblend_20s80h.wav	l	836	CAT_S	1	0	S_SH	1	2	11	F8	241	SIGNblend_80s20h.wav	a	1209	CAT_S	7	1	S_SH	1	2	11	F8	242	SIGNblend_40s60h.wav	a	1142	CAT_S	3	1	S_SH	1	2	11	F8	243	SIGNblend_40s60h.wav	a	1258	CAT_S	3	1	S_SH	1	2	11	F8	244	SIGNblend_80s20h.wav	l	1159	CAT_S	7	0	S_SH	1	2	11	F8	245	SIGNblend_30s70h.wav	l	1282	CAT_S	2	0	S_SH	1	2	11	F8	246	SIGNblend_20s80h.wav	l	1103	CAT_S	1	0	S_SH	1	2	11	F8	247	SIGNblend_40s60h.wav	a	1107	CAT_S	3	1	S_SH	1	2	11	F8	248	SIGNblend_60s40h.wav	a	1110	CAT_S	5	1	S_SH	1	2	11	F8	249	SIGNblend_50s50h.wav	a	1122	CAT_S	4	1	S_SH	1	2	11	F8	250	SIGNblend_20s80h.wav	l	1087	CAT_S	1	0	S_SH	1	2	11	F8	251	SIGNblend_50s50h.wav	a	1067	CAT_S	4	1	S_SH	1	2	11	F8	252	SIGNblend_20s80h.wav	l	1087	CAT_S	1	0	S_SH	1	2	11	F8	253	SIGNblend_20s80h.wav	l	1027	CAT_S	1	0	S_SH	1	2	11	F8	254	SIGNblend_30s70h.wav	l	919	CAT_S	2	0	S_SH	1	2	11	F8	255	SIGNblend_50s50h.wav	a	964	CAT_S	4	1	S_SH	1	2	11	F8	256	SIGNblend_20s80h.wav	l	1000	CAT_S	1	0	S_SH	1	2	11	F8	457	SIGNblend_80s20h.wav	a	986	CAT_SH	7	1	S_SH	1	1	11	F8	458	SIGNblend_40s60h.wav	a	1000	CAT_SH	3	1	S_SH	1	1	11	F8	459	SIGNblend_80s20h.wav	a	1173	CAT_SH	7	1	S_SH	1	1	11	F8	460	SIGNblend_80s20h.wav	a	1064	CAT_SH	7	1	S_SH	1	1	11	F8	461	SIGNblend_40s60h.wav	a	1837	CAT_SH	3	1	S_SH	1	1	11	F8	462	SIGNblend_50s50h.wav	a	1533	CAT_SH	4	1	S_SH	1	1	11	F8	463	SIGNblend_70s30h.wav	a	1504	CAT_SH	6	1	S_SH	1	1	11	F8	464	SIGNblend_80s20h.wav	a	1356	CAT_SH	7	1	S_SH	1	1	11	F8	465	SIGNblend_80s20h.wav	a	1118	CAT_SH	7	1	S_SH	1	1	11	F8	466	SIGNblend_60s40h.wav	a	1077	CAT_SH	5	1	S_SH	1	1	11	F8	467	SIGNblend_20s80h.wav	l	1097	CAT_SH	1	0	S_SH	1	1	11	F8	468	SIGNblend_80s20h.wav	a	1132	CAT_SH	7	1	S_SH	1	1	11	F8	469	SIGNblend_80s20h.wav	a	1169	CAT_SH	7	1	S_SH	1	1	11	F8	470	SIGNblend_70s30h.wav	a	1214	CAT_SH	6	1	S_SH	1	1	11	F8	471	SIGNblend_80s20h.wav	a	1210	CAT_SH	7	1	S_SH	1	1	11	F8	472	SIGNblend_40s60h.wav	a	1175	CAT_SH	3	1	S_SH	1	1	11	F8	473	SIGNblend_80s20h.wav	a	1115	CAT_SH	7	1	S_SH	1	1	11	F8	474	SIGNblend_80s20h.wav	a	1209	CAT_SH	7	1	S_SH	1	1	11	F8	475	SIGNblend_80s20h.wav	a	1078	CAT_SH	7	1	S_SH	1	1	11	F8	476	SIGNblend_60s40h.wav	a	1057	CAT_SH	5	1	S_SH	1	1	11	F8	477	SIGNblend_70s30h.wav	a	1134	CAT_SH	6	1	S_SH	1	1	11	F8	478	SIGNblend_30s70h.wav	l	1115	CAT_SH	2	0	S_SH	1	1	11	F8	479	SIGNblend_50s50h.wav	a	1079	CAT_SH	4	1	S_SH	1	1	11	F8	480	SIGNblend_30s70h.wav	l	972	CAT_SH	2	0	S_SH	1	1	11	F8	481	SIGNblend_20s80h.wav	l	993	CAT_SH	1	0	S_SH	1	1	11	F8	482	SIGNblend_50s50h.wav	a	871	CAT_SH	4	1	S_SH	1	1	11	F8	483	SIGNblend_40s60h.wav	l	1475	CAT_SH	3	0	S_SH	1	1	11	F8	484	SIGNblend_50s50h.wav	a	1353	CAT_SH	4	1	S_SH	1	1	11	F8	485	SIGNblend_30s70h.wav	l	948	CAT_SH	2	0	S_SH	1	1	11	F8	486	SIGNblend_20s80h.wav	l	999	CAT_SH	1	0	S_SH	1	1	11	F8	487	SIGNblend_80s20h.wav	a	980	CAT_SH	7	1	S_SH	1	1	11	F8	488	SIGNblend_80s20h.wav	a	913	CAT_SH	7	1	S_SH	1	1	11	F8	489	SIGNblend_80s20h.wav	a	821	CAT_SH	7	1	S_SH	1	1	11	F8	490	SIGNblend_70s30h.wav	a	899	CAT_SH	6	1	S_SH	1	1	11	F8	491	SIGNblend_80s20h.wav	a	1039	CAT_SH	7	1	S_SH	1	1	11	F8	492	SIGNblend_80s20h.wav	a	1163	CAT_SH	7	1	S_SH	1	1	11	F8	493	SIGNblend_20s80h.wav	l	887	CAT_SH	1	0	S_SH	1	1	11	F8	494	SIGNblend_80s20h.wav	a	892	CAT_SH	7	1	S_SH	1	1	11	F8	495	SIGNblend_80s20h.wav	a	1017	CAT_SH	7	1	S_SH	1	1	11	F8	496	SIGNblend_20s80h.wav	l	901	CAT_SH	1	0	S_SH	1	1	11	F8	497	SIGNblend_80s20h.wav	a	969	CAT_SH	7	1	S_SH	1	1	11	F8	498	SIGNblend_60s40h.wav	a	981	CAT_SH	5	1	S_SH	1	1	11	F8	499	SIGNblend_80s20h.wav	a	1098	CAT_SH	7	1	S_SH	1	1	11	F8	500	SIGNblend_80s20h.wav	a	974	CAT_SH	7	1	S_SH	1	1	11	F8	501	SIGNblend_30s70h.wav	l	979	CAT_SH	2	0	S_SH	1	1	11	F8	502	SIGNblend_40s60h.wav	l	1001	CAT_SH	3	0	S_SH	1	1	11	F8	503	SIGNblend_60s40h.wav	a	981	CAT_SH	5	1	S_SH	1	1	11	F8	504	SIGNblend_80s20h.wav	a	986	CAT_SH	7	1	S_SH	1	1	11	F8	505	SIGNblend_30s70h.wav	l	911	CAT_SH	2	0	S_SH	1	1	11	F8	506	SIGNblend_60s40h.wav	a	979	CAT_SH	5	1	S_SH	1	1	11	F8	507	SIGNblend_80s20h.wav	a	918	CAT_SH	7	1	S_SH	1	1	11	F8	508	SIGNblend_80s20h.wav	a	1044	CAT_SH	7	1	S_SH	1	1	11	F8	509	SIGNblend_70s30h.wav	a	1008	CAT_SH	6	1	S_SH	1	1	11	F8	510	SIGNblend_80s20h.wav	a	981	CAT_SH	7	1	S_SH	1	1	11	F8	511	SIGNblend_80s20h.wav	a	1016	CAT_SH	7	1	S_SH	1	1	11	F8	512	SIGNblend_50s50h.wav	a	1029	CAT_SH	4	1	S_SH	1	1	13	F13	201	SIGNblend_40s60h.wav	l	2314	CAT_S	3	1	S_SH	1	2	13	F13	202	SIGNblend_40s60h.wav	l	2300	CAT_S	3	1	S_SH	1	2	13	F13	203	SIGNblend_50s50h.wav	l	2253	CAT_S	4	1	S_SH	1	2	13	F13	204	SIGNblend_20s80h.wav	l	5991	CAT_S	1	1	S_SH	1	2	13	F13	205	SIGNblend_50s50h.wav	l	1770	CAT_S	4	1	S_SH	1	2	13	F13	206	SIGNblend_50s50h.wav	l	1945	CAT_S	4	1	S_SH	1	2	13	F13	207	SIGNblend_70s30h.wav	l	1874	CAT_S	6	1	S_SH	1	2	13	F13	208	SIGNblend_40s60h.wav	l	1996	CAT_S	3	1	S_SH	1	2	13	F13	209	SIGNblend_50s50h.wav	l	1706	CAT_S	4	1	S_SH	1	2	13	F13	210	SIGNblend_20s80h.wav	a	2173	CAT_S	1	0	S_SH	1	2	13	F13	211	SIGNblend_60s40h.wav	l	1618	CAT_S	5	1	S_SH	1	2	13	F13	212	SIGNblend_60s40h.wav	l	1904	CAT_S	5	1	S_SH	1	2	13	F13	213	SIGNblend_50s50h.wav	l	2107	CAT_S	4	1	S_SH	1	2	13	F13	214	SIGNblend_40s60h.wav	l	1979	CAT_S	3	1	S_SH	1	2	13	F13	215	SIGNblend_40s60h.wav	l	1794	CAT_S	3	1	S_SH	1	2	13	F13	216	SIGNblend_20s80h.wav	a	1777	CAT_S	1	0	S_SH	1	2	13	F13	217	SIGNblend_40s60h.wav	l	1848	CAT_S	3	1	S_SH	1	2	13	F13	218	SIGNblend_20s80h.wav	l	3612	CAT_S	1	1	S_SH	1	2	13	F13	219	SIGNblend_50s50h.wav	l	2415	CAT_S	4	1	S_SH	1	2	13	F13	220	SIGNblend_50s50h.wav	l	1757	CAT_S	4	1	S_SH	1	2	13	F13	221	SIGNblend_60s40h.wav	l	1774	CAT_S	5	1	S_SH	1	2	13	F13	222	SIGNblend_50s50h.wav	l	2076	CAT_S	4	1	S_SH	1	2	13	F13	223	SIGNblend_40s60h.wav	l	1783	CAT_S	3	1	S_SH	1	2	13	F13	224	SIGNblend_40s60h.wav	l	1638	CAT_S	3	1	S_SH	1	2	13	F13	225	SIGNblend_30s70h.wav	l	1579	CAT_S	2	1	S_SH	1	2	13	F13	226	SIGNblend_30s70h.wav	l	1699	CAT_S	2	1	S_SH	1	2	13	F13	227	SIGNblend_80s20h.wav	l	2852	CAT_S	7	1	S_SH	1	2	13	F13	228	SIGNblend_20s80h.wav	a	2391	CAT_S	1	0	S_SH	1	2	13	F13	229	SIGNblend_20s80h.wav	l	4021	CAT_S	1	1	S_SH	1	2	13	F13	230	SIGNblend_30s70h.wav	l	3176	CAT_S	2	1	S_SH	1	2	13	F13	231	SIGNblend_50s50h.wav	l	1902	CAT_S	4	1	S_SH	1	2	13	F13	232	SIGNblend_80s20h.wav	l	1752	CAT_S	7	1	S_SH	1	2	13	F13	233	SIGNblend_30s70h.wav	a	1704	CAT_S	2	0	S_SH	1	2	13	F13	234	SIGNblend_60s40h.wav	l	1803	CAT_S	5	1	S_SH	1	2	13	F13	235	SIGNblend_40s60h.wav	a	2264	CAT_S	3	0	S_SH	1	2	13	F13	236	SIGNblend_30s70h.wav	a	1884	CAT_S	2	0	S_SH	1	2	13	F13	237	SIGNblend_30s70h.wav	l	1605	CAT_S	2	1	S_SH	1	2	13	F13	238	SIGNblend_20s80h.wav	a	2179	CAT_S	1	0	S_SH	1	2	13	F13	239	SIGNblend_70s30h.wav	l	1587	CAT_S	6	1	S_SH	1	2	13	F13	240	SIGNblend_30s70h.wav	a	1672	CAT_S	2	0	S_SH	1	2	13	F13	241	SIGNblend_40s60h.wav	l	1579	CAT_S	3	1	S_SH	1	2	13	F13	242	SIGNblend_80s20h.wav	l	1564	CAT_S	7	1	S_SH	1	2	13	F13	243	SIGNblend_60s40h.wav	l	1468	CAT_S	5	1	S_SH	1	2	13	F13	244	SIGNblend_50s50h.wav	l	1574	CAT_S	4	1	S_SH	1	2	13	F13	245	SIGNblend_20s80h.wav	a	1493	CAT_S	1	0	S_SH	1	2	13	F13	246	SIGNblend_60s40h.wav	l	1529	CAT_S	5	1	S_SH	1	2	13	F13	247	SIGNblend_30s70h.wav	a	3913	CAT_S	2	0	S_SH	1	2	13	F13	248	SIGNblend_80s20h.wav	l	1515	CAT_S	7	1	S_SH	1	2	13	F13	249	SIGNblend_20s80h.wav	a	1604	CAT_S	1	0	S_SH	1	2	13	F13	250	SIGNblend_30s70h.wav	l	1489	CAT_S	2	1	S_SH	1	2	13	F13	251	SIGNblend_70s30h.wav	l	1563	CAT_S	6	1	S_SH	1	2	13	F13	252	SIGNblend_70s30h.wav	l	1452	CAT_S	6	1	S_SH	1	2	13	F13	253	SIGNblend_30s70h.wav	a	1480	CAT_S	2	0	S_SH	1	2	13	F13	254	SIGNblend_20s80h.wav	a	1595	CAT_S	1	0	S_SH	1	2	13	F13	255	SIGNblend_80s20h.wav	l	1475	CAT_S	7	1	S_SH	1	2	13	F13	256	SIGNblend_70s30h.wav	l	1479	CAT_S	6	1	S_SH	1	2	13	F13	457	SIGNblend_80s20h.wav	l	1610	CAT_SH	7	1	S_SH	1	1	13	F13	458	SIGNblend_70s30h.wav	l	1521	CAT_SH	6	1	S_SH	1	1	13	F13	459	SIGNblend_80s20h.wav	l	1376	CAT_SH	7	1	S_SH	1	1	13	F13	460	SIGNblend_60s40h.wav	l	1680	CAT_SH	5	1	S_SH	1	1	13	F13	461	SIGNblend_80s20h.wav	l	1524	CAT_SH	7	1	S_SH	1	1	13	F13	462	SIGNblend_20s80h.wav	a	1540	CAT_SH	1	0	S_SH	1	1	13	F13	463	SIGNblend_80s20h.wav	l	1462	CAT_SH	7	1	S_SH	1	1	13	F13	464	SIGNblend_80s20h.wav	l	1392	CAT_SH	7	1	S_SH	1	1	13	F13	465	SIGNblend_50s50h.wav	l	1409	CAT_SH	4	1	S_SH	1	1	13	F13	466	SIGNblend_30s70h.wav	a	1629	CAT_SH	2	0	S_SH	1	1	13	F13	467	SIGNblend_80s20h.wav	l	1434	CAT_SH	7	1	S_SH	1	1	13	F13	468	SIGNblend_40s60h.wav	a	1616	CAT_SH	3	0	S_SH	1	1	13	F13	469	SIGNblend_20s80h.wav	a	1556	CAT_SH	1	0	S_SH	1	1	13	F13	470	SIGNblend_80s20h.wav	l	1445	CAT_SH	7	1	S_SH	1	1	13	F13	471	SIGNblend_20s80h.wav	a	1497	CAT_SH	1	0	S_SH	1	1	13	F13	472	SIGNblend_70s30h.wav	l	1436	CAT_SH	6	1	S_SH	1	1	13	F13	473	SIGNblend_80s20h.wav	l	1504	CAT_SH	7	1	S_SH	1	1	13	F13	474	SIGNblend_80s20h.wav	l	1474	CAT_SH	7	1	S_SH	1	1	13	F13	475	SIGNblend_70s30h.wav	l	1397	CAT_SH	6	1	S_SH	1	1	13	F13	476	SIGNblend_50s50h.wav	a	1708	CAT_SH	4	0	S_SH	1	1	13	F13	477	SIGNblend_30s70h.wav	a	1494	CAT_SH	2	0	S_SH	1	1	13	F13	478	SIGNblend_80s20h.wav	l	1560	CAT_SH	7	1	S_SH	1	1	13	F13	479	SIGNblend_50s50h.wav	l	1497	CAT_SH	4	1	S_SH	1	1	13	F13	480	SIGNblend_80s20h.wav	l	1458	CAT_SH	7	1	S_SH	1	1	13	F13	481	SIGNblend_80s20h.wav	l	1350	CAT_SH	7	1	S_SH	1	1	13	F13	482	SIGNblend_80s20h.wav	l	1358	CAT_SH	7	1	S_SH	1	1	13	F13	483	SIGNblend_80s20h.wav	l	1423	CAT_SH	7	1	S_SH	1	1	13	F13	484	SIGNblend_70s30h.wav	l	1556	CAT_SH	6	1	S_SH	1	1	13	F13	485	SIGNblend_60s40h.wav	l	1476	CAT_SH	5	1	S_SH	1	1	13	F13	486	SIGNblend_30s70h.wav	a	1416	CAT_SH	2	0	S_SH	1	1	13	F13	487	SIGNblend_80s20h.wav	l	1453	CAT_SH	7	1	S_SH	1	1	13	F13	488	SIGNblend_80s20h.wav	l	1401	CAT_SH	7	1	S_SH	1	1	13	F13	489	SIGNblend_50s50h.wav	l	1369	CAT_SH	4	1	S_SH	1	1	13	F13	490	SIGNblend_40s60h.wav	l	1471	CAT_SH	3	1	S_SH	1	1	13	F13	491	SIGNblend_80s20h.wav	l	1363	CAT_SH	7	1	S_SH	1	1	13	F13	492	SIGNblend_60s40h.wav	l	1699	CAT_SH	5	1	S_SH	1	1	13	F13	493	SIGNblend_20s80h.wav	a	1525	CAT_SH	1	0	S_SH	1	1	13	F13	494	SIGNblend_60s40h.wav	l	1502	CAT_SH	5	1	S_SH	1	1	13	F13	495	SIGNblend_30s70h.wav	a	1465	CAT_SH	2	0	S_SH	1	1	13	F13	496	SIGNblend_30s70h.wav	a	1461	CAT_SH	2	0	S_SH	1	1	13	F13	497	SIGNblend_80s20h.wav	l	1521	CAT_SH	7	1	S_SH	1	1	13	F13	498	SIGNblend_40s60h.wav	a	1545	CAT_SH	3	0	S_SH	1	1	13	F13	499	SIGNblend_70s30h.wav	l	1459	CAT_SH	6	1	S_SH	1	1	13	F13	500	SIGNblend_50s50h.wav	l	1710	CAT_SH	4	1	S_SH	1	1	13	F13	501	SIGNblend_80s20h.wav	l	1472	CAT_SH	7	1	S_SH	1	1	13	F13	502	SIGNblend_80s20h.wav	l	1412	CAT_SH	7	1	S_SH	1	1	13	F13	503	SIGNblend_80s20h.wav	l	1361	CAT_SH	7	1	S_SH	1	1	13	F13	504	SIGNblend_80s20h.wav	l	1281	CAT_SH	7	1	S_SH	1	1	13	F13	505	SIGNblend_40s60h.wav	a	1850	CAT_SH	3	0	S_SH	1	1	13	F13	506	SIGNblend_80s20h.wav	l	2949	CAT_SH	7	1	S_SH	1	1	13	F13	507	SIGNblend_80s20h.wav	l	1302	CAT_SH	7	1	S_SH	1	1	13	F13	508	SIGNblend_40s60h.wav	a	2486	CAT_SH	3	0	S_SH	1	1	13	F13	509	SIGNblend_60s40h.wav	l	1353	CAT_SH	5	1	S_SH	1	1	13	F13	510	SIGNblend_80s20h.wav	l	1399	CAT_SH	7	1	S_SH	1	1	13	F13	511	SIGNblend_80s20h.wav	l	1847	CAT_SH	7	1	S_SH	1	1	13	F13	512	SIGNblend_20s80h.wav	a	1379	CAT_SH	1	0	S_SH	1	1	15	F2	201	SIGNblend_30s70h.wav	a	1555	CAT_S	2	0	SH_S	0	2	15	F2	202	SIGNblend_70s30h.wav	a	1156	CAT_S	6	0	SH_S	0	2	15	F2	203	SIGNblend_70s30h.wav	a	1096	CAT_S	6	0	SH_S	0	2	15	F2	204	SIGNblend_70s30h.wav	a	1014	CAT_S	6	0	SH_S	0	2	15	F2	205	SIGNblend_50s50h.wav	a	971	CAT_S	4	0	SH_S	0	2	15	F2	206	SIGNblend_30s70h.wav	a	855	CAT_S	2	0	SH_S	0	2	15	F2	207	SIGNblend_50s50h.wav	a	810	CAT_S	4	0	SH_S	0	2	15	F2	208	SIGNblend_30s70h.wav	a	774	CAT_S	2	0	SH_S	0	2	15	F2	209	SIGNblend_20s80h.wav	a	1210	CAT_S	1	0	SH_S	0	2	15	F2	210	SIGNblend_50s50h.wav	a	1181	CAT_S	4	0	SH_S	0	2	15	F2	211	SIGNblend_30s70h.wav	a	1034	CAT_S	2	0	SH_S	0	2	15	F2	212	SIGNblend_50s50h.wav	a	1118	CAT_S	4	0	SH_S	0	2	15	F2	213	SIGNblend_50s50h.wav	a	1114	CAT_S	4	0	SH_S	0	2	15	F2	214	SIGNblend_30s70h.wav	a	1094	CAT_S	2	0	SH_S	0	2	15	F2	215	SIGNblend_20s80h.wav	a	1146	CAT_S	1	0	SH_S	0	2	15	F2	216	SIGNblend_40s60h.wav	a	1145	CAT_S	3	0	SH_S	0	2	15	F2	217	SIGNblend_30s70h.wav	l	1500	CAT_S	2	1	SH_S	0	2	15	F2	218	SIGNblend_60s40h.wav	a	1192	CAT_S	5	0	SH_S	0	2	15	F2	219	SIGNblend_60s40h.wav	a	1075	CAT_S	5	0	SH_S	0	2	15	F2	220	SIGNblend_30s70h.wav	a	1160	CAT_S	2	0	SH_S	0	2	15	F2	221	SIGNblend_40s60h.wav	a	1149	CAT_S	3	0	SH_S	0	2	15	F2	222	SIGNblend_30s70h.wav	a	1032	CAT_S	2	0	SH_S	0	2	15	F2	223	SIGNblend_30s70h.wav	a	1044	CAT_S	2	0	SH_S	0	2	15	F2	224	SIGNblend_50s50h.wav	a	960	CAT_S	4	0	SH_S	0	2	15	F2	225	SIGNblend_80s20h.wav	a	1053	CAT_S	7	0	SH_S	0	2	15	F2	226	SIGNblend_40s60h.wav	l	1088	CAT_S	3	1	SH_S	0	2	15	F2	227	SIGNblend_40s60h.wav	a	1166	CAT_S	3	0	SH_S	0	2	15	F2	228	SIGNblend_40s60h.wav	a	1025	CAT_S	3	0	SH_S	0	2	15	F2	229	SIGNblend_20s80h.wav	a	1157	CAT_S	1	0	SH_S	0	2	15	F2	230	SIGNblend_30s70h.wav	a	1088	CAT_S	2	0	SH_S	0	2	15	F2	231	SIGNblend_60s40h.wav	a	1109	CAT_S	5	0	SH_S	0	2	15	F2	232	SIGNblend_20s80h.wav	a	1001	CAT_S	1	0	SH_S	0	2	15	F2	233	SIGNblend_20s80h.wav	a	1151	CAT_S	1	0	SH_S	0	2	15	F2	234	SIGNblend_20s80h.wav	l	1283	CAT_S	1	1	SH_S	0	2	15	F2	235	SIGNblend_80s20h.wav	a	1406	CAT_S	7	0	SH_S	0	2	15	F2	236	SIGNblend_40s60h.wav	a	1223	CAT_S	3	0	SH_S	0	2	15	F2	237	SIGNblend_40s60h.wav	a	1267	CAT_S	3	0	SH_S	0	2	15	F2	238	SIGNblend_40s60h.wav	a	1207	CAT_S	3	0	SH_S	0	2	15	F2	239	SIGNblend_40s60h.wav	l	1451	CAT_S	3	1	SH_S	0	2	15	F2	240	SIGNblend_70s30h.wav	a	1449	CAT_S	6	0	SH_S	0	2	15	F2	241	SIGNblend_20s80h.wav	a	1384	CAT_S	1	0	SH_S	0	2	15	F2	242	SIGNblend_20s80h.wav	l	1209	CAT_S	1	1	SH_S	0	2	15	F2	243	SIGNblend_80s20h.wav	a	1092	CAT_S	7	0	SH_S	0	2	15	F2	244	SIGNblend_50s50h.wav	a	882	CAT_S	4	0	SH_S	0	2	15	F2	245	SIGNblend_80s20h.wav	a	1037	CAT_S	7	0	SH_S	0	2	15	F2	246	SIGNblend_60s40h.wav	a	1106	CAT_S	5	0	SH_S	0	2	15	F2	247	SIGNblend_50s50h.wav	a	1094	CAT_S	4	0	SH_S	0	2	15	F2	248	SIGNblend_70s30h.wav	a	961	CAT_S	6	0	SH_S	0	2	15	F2	249	SIGNblend_80s20h.wav	a	982	CAT_S	7	0	SH_S	0	2	15	F2	250	SIGNblend_20s80h.wav	l	1113	CAT_S	1	1	SH_S	0	2	15	F2	251	SIGNblend_60s40h.wav	a	1174	CAT_S	5	0	SH_S	0	2	15	F2	252	SIGNblend_60s40h.wav	a	1002	CAT_S	5	0	SH_S	0	2	15	F2	253	SIGNblend_40s60h.wav	l	1054	CAT_S	3	1	SH_S	0	2	15	F2	254	SIGNblend_50s50h.wav	a	1106	CAT_S	4	0	SH_S	0	2	15	F2	255	SIGNblend_50s50h.wav	a	1022	CAT_S	4	0	SH_S	0	2	15	F2	256	SIGNblend_20s80h.wav	l	1147	CAT_S	1	1	SH_S	0	2	15	F2	457	SIGNblend_80s20h.wav	a	1144	CAT_SH	7	0	SH_S	0	1	15	F2	458	SIGNblend_50s50h.wav	a	1141	CAT_SH	4	0	SH_S	0	1	15	F2	459	SIGNblend_80s20h.wav	a	1106	CAT_SH	7	0	SH_S	0	1	15	F2	460	SIGNblend_80s20h.wav	a	966	CAT_SH	7	0	SH_S	0	1	15	F2	461	SIGNblend_30s70h.wav	a	842	CAT_SH	2	0	SH_S	0	1	15	F2	462	SIGNblend_70s30h.wav	a	1079	CAT_SH	6	0	SH_S	0	1	15	F2	463	SIGNblend_20s80h.wav	l	1164	CAT_SH	1	1	SH_S	0	1	15	F2	464	SIGNblend_40s60h.wav	a	1112	CAT_SH	3	0	SH_S	0	1	15	F2	465	SIGNblend_80s20h.wav	a	1070	CAT_SH	7	0	SH_S	0	1	15	F2	466	SIGNblend_80s20h.wav	a	1043	CAT_SH	7	0	SH_S	0	1	15	F2	467	SIGNblend_80s20h.wav	a	1079	CAT_SH	7	0	SH_S	0	1	15	F2	468	SIGNblend_20s80h.wav	l	1075	CAT_SH	1	1	SH_S	0	1	15	F2	469	SIGNblend_80s20h.wav	a	1049	CAT_SH	7	0	SH_S	0	1	15	F2	470	SIGNblend_60s40h.wav	a	988	CAT_SH	5	0	SH_S	0	1	15	F2	471	SIGNblend_50s50h.wav	a	1041	CAT_SH	4	0	SH_S	0	1	15	F2	472	SIGNblend_80s20h.wav	a	1014	CAT_SH	7	0	SH_S	0	1	15	F2	473	SIGNblend_80s20h.wav	a	1042	CAT_SH	7	0	SH_S	0	1	15	F2	474	SIGNblend_30s70h.wav	a	936	CAT_SH	2	0	SH_S	0	1	15	F2	475	SIGNblend_60s40h.wav	a	1004	CAT_SH	5	0	SH_S	0	1	15	F2	476	SIGNblend_80s20h.wav	a	1065	CAT_SH	7	0	SH_S	0	1	15	F2	477	SIGNblend_80s20h.wav	a	1004	CAT_SH	7	0	SH_S	0	1	15	F2	478	SIGNblend_40s60h.wav	l	970	CAT_SH	3	1	SH_S	0	1	15	F2	479	SIGNblend_50s50h.wav	a	1022	CAT_SH	4	0	SH_S	0	1	15	F2	480	SIGNblend_40s60h.wav	a	971	CAT_SH	3	0	SH_S	0	1	15	F2	481	SIGNblend_80s20h.wav	a	1040	CAT_SH	7	0	SH_S	0	1	15	F2	482	SIGNblend_80s20h.wav	a	1076	CAT_SH	7	0	SH_S	0	1	15	F2	483	SIGNblend_80s20h.wav	a	1209	CAT_SH	7	0	SH_S	0	1	15	F2	484	SIGNblend_80s20h.wav	a	1014	CAT_SH	7	0	SH_S	0	1	15	F2	485	SIGNblend_80s20h.wav	a	986	CAT_SH	7	0	SH_S	0	1	15	F2	486	SIGNblend_50s50h.wav	l	1214	CAT_SH	4	1	SH_S	0	1	15	F2	487	SIGNblend_80s20h.wav	a	1131	CAT_SH	7	0	SH_S	0	1	15	F2	488	SIGNblend_80s20h.wav	a	1056	CAT_SH	7	0	SH_S	0	1	15	F2	489	SIGNblend_60s40h.wav	l	1133	CAT_SH	5	1	SH_S	0	1	15	F2	490	SIGNblend_30s70h.wav	l	1130	CAT_SH	2	1	SH_S	0	1	15	F2	491	SIGNblend_70s30h.wav	a	1094	CAT_SH	6	0	SH_S	0	1	15	F2	492	SIGNblend_40s60h.wav	l	1076	CAT_SH	3	1	SH_S	0	1	15	F2	493	SIGNblend_30s70h.wav	l	1176	CAT_SH	2	1	SH_S	0	1	15	F2	494	SIGNblend_40s60h.wav	a	1093	CAT_SH	3	0	SH_S	0	1	15	F2	495	SIGNblend_50s50h.wav	a	994	CAT_SH	4	0	SH_S	0	1	15	F2	496	SIGNblend_80s20h.wav	a	1093	CAT_SH	7	0	SH_S	0	1	15	F2	497	SIGNblend_80s20h.wav	a	1107	CAT_SH	7	0	SH_S	0	1	15	F2	498	SIGNblend_80s20h.wav	a	999	CAT_SH	7	0	SH_S	0	1	15	F2	499	SIGNblend_20s80h.wav	a	868	CAT_SH	1	0	SH_S	0	1	15	F2	500	SIGNblend_70s30h.wav	a	1401	CAT_SH	6	0	SH_S	0	1	15	F2	501	SIGNblend_60s40h.wav	a	1338	CAT_SH	5	0	SH_S	0	1	15	F2	502	SIGNblend_80s20h.wav	a	1052	CAT_SH	7	0	SH_S	0	1	15	F2	503	SIGNblend_60s40h.wav	a	1306	CAT_SH	5	0	SH_S	0	1	15	F2	504	SIGNblend_30s70h.wav	l	1094	CAT_SH	2	1	SH_S	0	1	15	F2	505	SIGNblend_80s20h.wav	a	1026	CAT_SH	7	0	SH_S	0	1	15	F2	506	SIGNblend_80s20h.wav	a	1055	CAT_SH	7	0	SH_S	0	1	15	F2	507	SIGNblend_70s30h.wav	a	1108	CAT_SH	6	0	SH_S	0	1	15	F2	508	SIGNblend_70s30h.wav	a	1184	CAT_SH	6	0	SH_S	0	1	15	F2	509	SIGNblend_80s20h.wav	a	1062	CAT_SH	7	0	SH_S	0	1	15	F2	510	SIGNblend_20s80h.wav	l	1098	CAT_SH	1	1	SH_S	0	1	15	F2	511	SIGNblend_80s20h.wav	a	1078	CAT_SH	7	0	SH_S	0	1	15	F2	512	SIGNblend_20s80h.wav	l	1154	CAT_SH	1	1	SH_S	0	1	17	F11	201	SIGNblend_50s50h.wav	l	1566	CAT_S	4	1	S_SH	1	2	17	F11	202	SIGNblend_40s60h.wav	l	1624	CAT_S	3	1	S_SH	1	2	17	F11	203	SIGNblend_50s50h.wav	a	1487	CAT_S	4	0	S_SH	1	2	17	F11	204	SIGNblend_20s80h.wav	a	1269	CAT_S	1	0	S_SH	1	2	17	F11	205	SIGNblend_20s80h.wav	a	1401	CAT_S	1	0	S_SH	1	2	17	F11	206	SIGNblend_60s40h.wav	l	1394	CAT_S	5	1	S_SH	1	2	17	F11	207	SIGNblend_30s70h.wav	l	1476	CAT_S	2	1	S_SH	1	2	17	F11	208	SIGNblend_60s40h.wav	l	1440	CAT_S	5	1	S_SH	1	2	17	F11	209	SIGNblend_20s80h.wav	a	1447	CAT_S	1	0	S_SH	1	2	17	F11	210	SIGNblend_30s70h.wav	a	1279	CAT_S	2	0	S_SH	1	2	17	F11	211	SIGNblend_80s20h.wav	l	1298	CAT_S	7	1	S_SH	1	2	17	F11	212	SIGNblend_20s80h.wav	a	1439	CAT_S	1	0	S_SH	1	2	17	F11	213	SIGNblend_50s50h.wav	l	1494	CAT_S	4	1	S_SH	1	2	17	F11	214	SIGNblend_80s20h.wav	l	1299	CAT_S	7	1	S_SH	1	2	17	F11	215	SIGNblend_40s60h.wav	l	1167	CAT_S	3	1	S_SH	1	2	17	F11	216	SIGNblend_80s20h.wav	l	1275	CAT_S	7	1	S_SH	1	2	17	F11	217	SIGNblend_50s50h.wav	l	1496	CAT_S	4	1	S_SH	1	2	17	F11	218	SIGNblend_20s80h.wav	a	1373	CAT_S	1	0	S_SH	1	2	17	F11	219	SIGNblend_70s30h.wav	l	1318	CAT_S	6	1	S_SH	1	2	17	F11	220	SIGNblend_30s70h.wav	a	1098	CAT_S	2	0	S_SH	1	2	17	F11	221	SIGNblend_50s50h.wav	l	1541	CAT_S	4	1	S_SH	1	2	17	F11	222	SIGNblend_70s30h.wav	l	1273	CAT_S	6	1	S_SH	1	2	17	F11	223	SIGNblend_50s50h.wav	l	1214	CAT_S	4	1	S_SH	1	2	17	F11	224	SIGNblend_50s50h.wav	l	1267	CAT_S	4	1	S_SH	1	2	17	F11	225	SIGNblend_60s40h.wav	l	1374	CAT_S	5	1	S_SH	1	2	17	F11	226	SIGNblend_30s70h.wav	l	1200	CAT_S	2	1	S_SH	1	2	17	F11	227	SIGNblend_40s60h.wav	a	1124	CAT_S	3	0	S_SH	1	2	17	F11	228	SIGNblend_40s60h.wav	a	1167	CAT_S	3	0	S_SH	1	2	17	F11	229	SIGNblend_20s80h.wav	a	1069	CAT_S	1	0	S_SH	1	2	17	F11	230	SIGNblend_70s30h.wav	l	1304	CAT_S	6	1	S_SH	1	2	17	F11	231	SIGNblend_60s40h.wav	l	1389	CAT_S	5	1	S_SH	1	2	17	F11	232	SIGNblend_70s30h.wav	l	1407	CAT_S	6	1	S_SH	1	2	17	F11	233	SIGNblend_20s80h.wav	a	1255	CAT_S	1	0	S_SH	1	2	17	F11	234	SIGNblend_50s50h.wav	l	1330	CAT_S	4	1	S_SH	1	2	17	F11	235	SIGNblend_30s70h.wav	a	1293	CAT_S	2	0	S_SH	1	2	17	F11	236	SIGNblend_80s20h.wav	l	1258	CAT_S	7	1	S_SH	1	2	17	F11	237	SIGNblend_40s60h.wav	l	1687	CAT_S	3	1	S_SH	1	2	17	F11	238	SIGNblend_40s60h.wav	a	1363	CAT_S	3	0	S_SH	1	2	17	F11	239	SIGNblend_20s80h.wav	a	1679	CAT_S	1	0	S_SH	1	2	17	F11	240	SIGNblend_30s70h.wav	a	1492	CAT_S	2	0	S_SH	1	2	17	F11	241	SIGNblend_40s60h.wav	a	1561	CAT_S	3	0	S_SH	1	2	17	F11	242	SIGNblend_30s70h.wav	a	1321	CAT_S	2	0	S_SH	1	2	17	F11	243	SIGNblend_50s50h.wav	l	1479	CAT_S	4	1	S_SH	1	2	17	F11	244	SIGNblend_50s50h.wav	l	1348	CAT_S	4	1	S_SH	1	2	17	F11	245	SIGNblend_60s40h.wav	l	1374	CAT_S	5	1	S_SH	1	2	17	F11	246	SIGNblend_60s40h.wav	l	1353	CAT_S	5	1	S_SH	1	2	17	F11	247	SIGNblend_30s70h.wav	l	1619	CAT_S	2	1	S_SH	1	2	17	F11	248	SIGNblend_80s20h.wav	l	1402	CAT_S	7	1	S_SH	1	2	17	F11	249	SIGNblend_30s70h.wav	l	1492	CAT_S	2	1	S_SH	1	2	17	F11	250	SIGNblend_20s80h.wav	a	1273	CAT_S	1	0	S_SH	1	2	17	F11	251	SIGNblend_30s70h.wav	a	1414	CAT_S	2	0	S_SH	1	2	17	F11	252	SIGNblend_70s30h.wav	l	1406	CAT_S	6	1	S_SH	1	2	17	F11	253	SIGNblend_40s60h.wav	l	1479	CAT_S	3	1	S_SH	1	2	17	F11	254	SIGNblend_40s60h.wav	l	1435	CAT_S	3	1	S_SH	1	2	17	F11	255	SIGNblend_40s60h.wav	l	1315	CAT_S	3	1	S_SH	1	2	17	F11	256	SIGNblend_20s80h.wav	a	1440	CAT_S	1	0	S_SH	1	2	17	F11	457	SIGNblend_60s40h.wav	l	1402	CAT_SH	5	1	S_SH	1	1	17	F11	458	SIGNblend_50s50h.wav	l	1324	CAT_SH	4	1	S_SH	1	1	17	F11	459	SIGNblend_70s30h.wav	l	1303	CAT_SH	6	1	S_SH	1	1	17	F11	460	SIGNblend_50s50h.wav	l	1308	CAT_SH	4	1	S_SH	1	1	17	F11	461	SIGNblend_80s20h.wav	l	1352	CAT_SH	7	1	S_SH	1	1	17	F11	462	SIGNblend_40s60h.wav	l	1331	CAT_SH	3	1	S_SH	1	1	17	F11	463	SIGNblend_40s60h.wav	l	1544	CAT_SH	3	1	S_SH	1	1	17	F11	464	SIGNblend_80s20h.wav	l	1523	CAT_SH	7	1	S_SH	1	1	17	F11	465	SIGNblend_80s20h.wav	l	1374	CAT_SH	7	1	S_SH	1	1	17	F11	466	SIGNblend_20s80h.wav	a	1360	CAT_SH	1	0	S_SH	1	1	17	F11	467	SIGNblend_80s20h.wav	l	1194	CAT_SH	7	1	S_SH	1	1	17	F11	468	SIGNblend_30s70h.wav	l	1487	CAT_SH	2	1	S_SH	1	1	17	F11	469	SIGNblend_80s20h.wav	l	1387	CAT_SH	7	1	S_SH	1	1	17	F11	470	SIGNblend_40s60h.wav	a	1476	CAT_SH	3	0	S_SH	1	1	17	F11	471	SIGNblend_30s70h.wav	a	1411	CAT_SH	2	0	S_SH	1	1	17	F11	472	SIGNblend_50s50h.wav	l	1346	CAT_SH	4	1	S_SH	1	1	17	F11	473	SIGNblend_80s20h.wav	l	1245	CAT_SH	7	1	S_SH	1	1	17	F11	474	SIGNblend_20s80h.wav	a	1225	CAT_SH	1	0	S_SH	1	1	17	F11	475	SIGNblend_80s20h.wav	l	1214	CAT_SH	7	1	S_SH	1	1	17	F11	476	SIGNblend_20s80h.wav	a	1276	CAT_SH	1	0	S_SH	1	1	17	F11	477	SIGNblend_60s40h.wav	l	1216	CAT_SH	5	1	S_SH	1	1	17	F11	478	SIGNblend_80s20h.wav	l	1188	CAT_SH	7	1	S_SH	1	1	17	F11	479	SIGNblend_40s60h.wav	l	1250	CAT_SH	3	1	S_SH	1	1	17	F11	480	SIGNblend_30s70h.wav	a	1294	CAT_SH	2	0	S_SH	1	1	17	F11	481	SIGNblend_60s40h.wav	l	1212	CAT_SH	5	1	S_SH	1	1	17	F11	482	SIGNblend_30s70h.wav	l	1423	CAT_SH	2	1	S_SH	1	1	17	F11	483	SIGNblend_60s40h.wav	l	1311	CAT_SH	5	1	S_SH	1	1	17	F11	484	SIGNblend_70s30h.wav	l	1251	CAT_SH	6	1	S_SH	1	1	17	F11	485	SIGNblend_80s20h.wav	l	1225	CAT_SH	7	1	S_SH	1	1	17	F11	486	SIGNblend_60s40h.wav	l	1470	CAT_SH	5	1	S_SH	1	1	17	F11	487	SIGNblend_70s30h.wav	l	1692	CAT_SH	6	1	S_SH	1	1	17	F11	488	SIGNblend_70s30h.wav	l	632	CAT_SH	6	1	S_SH	1	1	17	F11	489	SIGNblend_80s20h.wav	l	1286	CAT_SH	7	1	S_SH	1	1	17	F11	490	SIGNblend_20s80h.wav	a	1193	CAT_SH	1	0	S_SH	1	1	17	F11	491	SIGNblend_80s20h.wav	l	1199	CAT_SH	7	1	S_SH	1	1	17	F11	492	SIGNblend_80s20h.wav	l	1243	CAT_SH	7	1	S_SH	1	1	17	F11	493	SIGNblend_80s20h.wav	l	1537	CAT_SH	7	1	S_SH	1	1	17	F11	494	SIGNblend_80s20h.wav	l	1276	CAT_SH	7	1	S_SH	1	1	17	F11	495	SIGNblend_40s60h.wav	a	1321	CAT_SH	3	0	S_SH	1	1	17	F11	496	SIGNblend_80s20h.wav	l	1220	CAT_SH	7	1	S_SH	1	1	17	F11	497	SIGNblend_80s20h.wav	l	1241	CAT_SH	7	1	S_SH	1	1	17	F11	498	SIGNblend_80s20h.wav	l	1198	CAT_SH	7	1	S_SH	1	1	17	F11	499	SIGNblend_80s20h.wav	a	1258	CAT_SH	7	0	S_SH	1	1	17	F11	500	SIGNblend_80s20h.wav	l	1207	CAT_SH	7	1	S_SH	1	1	17	F11	501	SIGNblend_70s30h.wav	l	1004	CAT_SH	6	1	S_SH	1	1	17	F11	502	SIGNblend_80s20h.wav	l	1225	CAT_SH	7	1	S_SH	1	1	17	F11	503	SIGNblend_50s50h.wav	a	1294	CAT_SH	4	0	S_SH	1	1	17	F11	504	SIGNblend_30s70h.wav	a	1265	CAT_SH	2	0	S_SH	1	1	17	F11	505	SIGNblend_50s50h.wav	l	1341	CAT_SH	4	1	S_SH	1	1	17	F11	506	SIGNblend_80s20h.wav	l	1562	CAT_SH	7	1	S_SH	1	1	17	F11	507	SIGNblend_80s20h.wav	l	1420	CAT_SH	7	1	S_SH	1	1	17	F11	508	SIGNblend_80s20h.wav	l	1220	CAT_SH	7	1	S_SH	1	1	17	F11	509	SIGNblend_80s20h.wav	l	1312	CAT_SH	7	1	S_SH	1	1	17	F11	510	SIGNblend_80s20h.wav	l	1268	CAT_SH	7	1	S_SH	1	1	17	F11	511	SIGNblend_80s20h.wav	l	1456	CAT_SH	7	1	S_SH	1	1	17	F11	512	SIGNblend_20s80h.wav	a	1312	CAT_SH	1	0	S_SH	1	1	111	F5	201	SIGNblend_20s80h.wav	a	2223	CAT_S	1	0	S_SH	0	2	111	F5	202	SIGNblend_80s20h.wav	l	1632	CAT_S	7	1	S_SH	0	2	111	F5	203	SIGNblend_50s50h.wav	l	1591	CAT_S	4	1	S_SH	0	2	111	F5	204	SIGNblend_20s80h.wav	a	1520	CAT_S	1	0	S_SH	0	2	111	F5	205	SIGNblend_80s20h.wav	l	1476	CAT_S	7	1	S_SH	0	2	111	F5	206	SIGNblend_30s70h.wav	l	1579	CAT_S	2	1	S_SH	0	2	111	F5	207	SIGNblend_20s80h.wav	a	1508	CAT_S	1	0	S_SH	0	2	111	F5	208	SIGNblend_60s40h.wav	l	1465	CAT_S	5	1	S_SH	0	2	111	F5	209	SIGNblend_40s60h.wav	l	1278	CAT_S	3	1	S_SH	0	2	111	F5	210	SIGNblend_80s20h.wav	l	1346	CAT_S	7	1	S_SH	0	2	111	F5	211	SIGNblend_70s30h.wav	l	1389	CAT_S	6	1	S_SH	0	2	111	F5	212	SIGNblend_40s60h.wav	l	1485	CAT_S	3	1	S_SH	0	2	111	F5	213	SIGNblend_20s80h.wav	a	1467	CAT_S	1	0	S_SH	0	2	111	F5	214	SIGNblend_40s60h.wav	l	1466	CAT_S	3	1	S_SH	0	2	111	F5	215	SIGNblend_50s50h.wav	l	1288	CAT_S	4	1	S_SH	0	2	111	F5	216	SIGNblend_50s50h.wav	l	1420	CAT_S	4	1	S_SH	0	2	111	F5	217	SIGNblend_40s60h.wav	l	1460	CAT_S	3	1	S_SH	0	2	111	F5	218	SIGNblend_30s70h.wav	a	2090	CAT_S	2	0	S_SH	0	2	111	F5	219	SIGNblend_80s20h.wav	l	1488	CAT_S	7	1	S_SH	0	2	111	F5	220	SIGNblend_20s80h.wav	a	1341	CAT_S	1	0	S_SH	0	2	111	F5	221	SIGNblend_50s50h.wav	l	1656	CAT_S	4	1	S_SH	0	2	111	F5	222	SIGNblend_30s70h.wav	l	1438	CAT_S	2	1	S_SH	0	2	111	F5	223	SIGNblend_50s50h.wav	l	1462	CAT_S	4	1	S_SH	0	2	111	F5	224	SIGNblend_20s80h.wav	a	1444	CAT_S	1	0	S_SH	0	2	111	F5	225	SIGNblend_60s40h.wav	l	1531	CAT_S	5	1	S_SH	0	2	111	F5	226	SIGNblend_80s20h.wav	l	1510	CAT_S	7	1	S_SH	0	2	111	F5	227	SIGNblend_40s60h.wav	l	1387	CAT_S	3	1	S_SH	0	2	111	F5	228	SIGNblend_20s80h.wav	a	1307	CAT_S	1	0	S_SH	0	2	111	F5	229	SIGNblend_70s30h.wav	l	1359	CAT_S	6	1	S_SH	0	2	111	F5	230	SIGNblend_40s60h.wav	l	1474	CAT_S	3	1	S_SH	0	2	111	F5	231	SIGNblend_20s80h.wav	a	1409	CAT_S	1	0	S_SH	0	2	111	F5	232	SIGNblend_40s60h.wav	l	1496	CAT_S	3	1	S_SH	0	2	111	F5	233	SIGNblend_30s70h.wav	a	1508	CAT_S	2	0	S_SH	0	2	111	F5	234	SIGNblend_60s40h.wav	l	1408	CAT_S	5	1	S_SH	0	2	111	F5	235	SIGNblend_30s70h.wav	a	1459	CAT_S	2	0	S_SH	0	2	111	F5	236	SIGNblend_30s70h.wav	a	2049	CAT_S	2	0	S_SH	0	2	111	F5	237	SIGNblend_30s70h.wav	l	1870	CAT_S	2	1	S_SH	0	2	111	F5	238	SIGNblend_50s50h.wav	l	1438	CAT_S	4	1	S_SH	0	2	111	F5	239	SIGNblend_40s60h.wav	l	1180	CAT_S	3	1	S_SH	0	2	111	F5	240	SIGNblend_20s80h.wav	a	1200	CAT_S	1	0	S_SH	0	2	111	F5	241	SIGNblend_50s50h.wav	l	1892	CAT_S	4	1	S_SH	0	2	111	F5	242	SIGNblend_70s30h.wav	l	1402	CAT_S	6	1	S_SH	0	2	111	F5	243	SIGNblend_40s60h.wav	l	1131	CAT_S	3	1	S_SH	0	2	111	F5	244	SIGNblend_60s40h.wav	l	1415	CAT_S	5	1	S_SH	0	2	111	F5	245	SIGNblend_30s70h.wav	l	1711	CAT_S	2	1	S_SH	0	2	111	F5	246	SIGNblend_50s50h.wav	l	1323	CAT_S	4	1	S_SH	0	2	111	F5	247	SIGNblend_60s40h.wav	l	1366	CAT_S	5	1	S_SH	0	2	111	F5	248	SIGNblend_30s70h.wav	a	1729	CAT_S	2	0	S_SH	0	2	111	F5	249	SIGNblend_20s80h.wav	a	1452	CAT_S	1	0	S_SH	0	2	111	F5	250	SIGNblend_40s60h.wav	l	1772	CAT_S	3	1	S_SH	0	2	111	F5	251	SIGNblend_70s30h.wav	l	1396	CAT_S	6	1	S_SH	0	2	111	F5	252	SIGNblend_30s70h.wav	l	1494	CAT_S	2	1	S_SH	0	2	111	F5	253	SIGNblend_70s30h.wav	l	1331	CAT_S	6	1	S_SH	0	2	111	F5	254	SIGNblend_60s40h.wav	l	1453	CAT_S	5	1	S_SH	0	2	111	F5	255	SIGNblend_50s50h.wav	l	1404	CAT_S	4	1	S_SH	0	2	111	F5	256	SIGNblend_50s50h.wav	l	1388	CAT_S	4	1	S_SH	0	2	111	F5	457	SIGNblend_80s20h.wav	l	1777	CAT_SH	7	1	S_SH	0	1	111	F5	458	SIGNblend_20s80h.wav	a	1300	CAT_SH	1	0	S_SH	0	1	111	F5	459	SIGNblend_50s50h.wav	l	1304	CAT_SH	4	1	S_SH	0	1	111	F5	460	SIGNblend_40s60h.wav	l	1122	CAT_SH	3	1	S_SH	0	1	111	F5	461	SIGNblend_80s20h.wav	l	1103	CAT_SH	7	1	S_SH	0	1	111	F5	462	SIGNblend_80s20h.wav	l	1229	CAT_SH	7	1	S_SH	0	1	111	F5	463	SIGNblend_40s60h.wav	l	1432	CAT_SH	3	1	S_SH	0	1	111	F5	464	SIGNblend_50s50h.wav	l	1408	CAT_SH	4	1	S_SH	0	1	111	F5	465	SIGNblend_80s20h.wav	l	1456	CAT_SH	7	1	S_SH	0	1	111	F5	466	SIGNblend_80s20h.wav	l	1415	CAT_SH	7	1	S_SH	0	1	111	F5	467	SIGNblend_80s20h.wav	l	1463	CAT_SH	7	1	S_SH	0	1	111	F5	468	SIGNblend_80s20h.wav	l	1205	CAT_SH	7	1	S_SH	0	1	111	F5	469	SIGNblend_30s70h.wav	a	1209	CAT_SH	2	0	S_SH	0	1	111	F5	470	SIGNblend_40s60h.wav	l	1479	CAT_SH	3	1	S_SH	0	1	111	F5	471	SIGNblend_70s30h.wav	l	1412	CAT_SH	6	1	S_SH	0	1	111	F5	472	SIGNblend_80s20h.wav	l	1412	CAT_SH	7	1	S_SH	0	1	111	F5	473	SIGNblend_80s20h.wav	l	1531	CAT_SH	7	1	S_SH	0	1	111	F5	474	SIGNblend_80s20h.wav	l	1455	CAT_SH	7	1	S_SH	0	1	111	F5	475	SIGNblend_70s30h.wav	l	1438	CAT_SH	6	1	S_SH	0	1	111	F5	476	SIGNblend_20s80h.wav	a	1277	CAT_SH	1	0	S_SH	0	1	111	F5	477	SIGNblend_20s80h.wav	a	1369	CAT_SH	1	0	S_SH	0	1	111	F5	478	SIGNblend_80s20h.wav	l	1042	CAT_SH	7	1	S_SH	0	1	111	F5	479	SIGNblend_80s20h.wav	l	1095	CAT_SH	7	1	S_SH	0	1	111	F5	480	SIGNblend_80s20h.wav	l	1124	CAT_SH	7	1	S_SH	0	1	111	F5	481	SIGNblend_80s20h.wav	l	1280	CAT_SH	7	1	S_SH	0	1	111	F5	482	SIGNblend_40s60h.wav	a	1413	CAT_SH	3	0	S_SH	0	1	111	F5	483	SIGNblend_80s20h.wav	l	1310	CAT_SH	7	1	S_SH	0	1	111	F5	484	SIGNblend_70s30h.wav	l	1179	CAT_SH	6	1	S_SH	0	1	111	F5	485	SIGNblend_80s20h.wav	l	1040	CAT_SH	7	1	S_SH	0	1	111	F5	486	SIGNblend_60s40h.wav	l	1083	CAT_SH	5	1	S_SH	0	1	111	F5	487	SIGNblend_80s20h.wav	l	1232	CAT_SH	7	1	S_SH	0	1	111	F5	488	SIGNblend_50s50h.wav	l	1332	CAT_SH	4	1	S_SH	0	1	111	F5	489	SIGNblend_30s70h.wav	a	1577	CAT_SH	2	0	S_SH	0	1	111	F5	490	SIGNblend_40s60h.wav	a	2114	CAT_SH	3	0	S_SH	0	1	111	F5	491	SIGNblend_80s20h.wav	l	1326	CAT_SH	7	1	S_SH	0	1	111	F5	492	SIGNblend_80s20h.wav	l	1146	CAT_SH	7	1	S_SH	0	1	111	F5	493	SIGNblend_60s40h.wav	l	1215	CAT_SH	5	1	S_SH	0	1	111	F5	494	SIGNblend_60s40h.wav	l	1202	CAT_SH	5	1	S_SH	0	1	111	F5	495	SIGNblend_80s20h.wav	l	1247	CAT_SH	7	1	S_SH	0	1	111	F5	496	SIGNblend_50s50h.wav	l	1332	CAT_SH	4	1	S_SH	0	1	111	F5	497	SIGNblend_70s30h.wav	l	1607	CAT_SH	6	1	S_SH	0	1	111	F5	498	SIGNblend_80s20h.wav	l	1471	CAT_SH	7	1	S_SH	0	1	111	F5	499	SIGNblend_80s20h.wav	l	1381	CAT_SH	7	1	S_SH	0	1	111	F5	500	SIGNblend_60s40h.wav	l	1375	CAT_SH	5	1	S_SH	0	1	111	F5	501	SIGNblend_20s80h.wav	a	1264	CAT_SH	1	0	S_SH	0	1	111	F5	502	SIGNblend_80s20h.wav	l	1205	CAT_SH	7	1	S_SH	0	1	111	F5	503	SIGNblend_30s70h.wav	a	1227	CAT_SH	2	0	S_SH	0	1	111	F5	504	SIGNblend_20s80h.wav	a	1327	CAT_SH	1	0	S_SH	0	1	111	F5	505	SIGNblend_30s70h.wav	a	1370	CAT_SH	2	0	S_SH	0	1	111	F5	506	SIGNblend_80s20h.wav	l	1196	CAT_SH	7	1	S_SH	0	1	111	F5	507	SIGNblend_80s20h.wav	l	1169	CAT_SH	7	1	S_SH	0	1	111	F5	508	SIGNblend_80s20h.wav	l	1262	CAT_SH	7	1	S_SH	0	1	111	F5	509	SIGNblend_50s50h.wav	l	1251	CAT_SH	4	1	S_SH	0	1	111	F5	510	SIGNblend_30s70h.wav	a	1184	CAT_SH	2	0	S_SH	0	1	111	F5	511	SIGNblend_60s40h.wav	l	1307	CAT_SH	5	1	S_SH	0	1	111	F5	512	SIGNblend_70s30h.wav	l	1241	CAT_SH	6	1	S_SH	0	1	112	F9	201	SIGNblend_80s20h.wav	a	3022	CAT_SH	7	1	SH_S	1	1	112	F9	202	SIGNblend_80s20h.wav	a	2991	CAT_SH	7	1	SH_S	1	1	112	F9	203	SIGNblend_70s30h.wav	a	2201	CAT_SH	6	1	SH_S	1	1	112	F9	204	SIGNblend_80s20h.wav	l	1770	CAT_SH	7	0	SH_S	1	1	112	F9	205	SIGNblend_40s60h.wav	l	1740	CAT_SH	3	0	SH_S	1	1	112	F9	206	SIGNblend_60s40h.wav	l	1615	CAT_SH	5	0	SH_S	1	1	112	F9	207	SIGNblend_40s60h.wav	l	1590	CAT_SH	3	0	SH_S	1	1	112	F9	208	SIGNblend_30s70h.wav	l	1544	CAT_SH	2	0	SH_S	1	1	112	F9	209	SIGNblend_80s20h.wav	a	1458	CAT_SH	7	1	SH_S	1	1	112	F9	210	SIGNblend_50s50h.wav	l	1417	CAT_SH	4	0	SH_S	1	1	112	F9	211	SIGNblend_70s30h.wav	a	1409	CAT_SH	6	1	SH_S	1	1	112	F9	212	SIGNblend_40s60h.wav	l	1410	CAT_SH	3	0	SH_S	1	1	112	F9	213	SIGNblend_20s80h.wav	l	1474	CAT_SH	1	0	SH_S	1	1	112	F9	214	SIGNblend_80s20h.wav	a	1305	CAT_SH	7	1	SH_S	1	1	112	F9	215	SIGNblend_50s50h.wav	l	1364	CAT_SH	4	0	SH_S	1	1	112	F9	216	SIGNblend_80s20h.wav	a	1629	CAT_SH	7	1	SH_S	1	1	112	F9	217	SIGNblend_60s40h.wav	l	1749	CAT_SH	5	0	SH_S	1	1	112	F9	218	SIGNblend_60s40h.wav	l	2505	CAT_SH	5	0	SH_S	1	1	112	F9	219	SIGNblend_80s20h.wav	a	1341	CAT_SH	7	1	SH_S	1	1	112	F9	220	SIGNblend_30s70h.wav	l	1305	CAT_SH	2	0	SH_S	1	1	112	F9	221	SIGNblend_80s20h.wav	a	1349	CAT_SH	7	1	SH_S	1	1	112	F9	222	SIGNblend_80s20h.wav	a	1287	CAT_SH	7	1	SH_S	1	1	112	F9	223	SIGNblend_80s20h.wav	a	1341	CAT_SH	7	1	SH_S	1	1	112	F9	224	SIGNblend_80s20h.wav	a	1575	CAT_SH	7	1	SH_S	1	1	112	F9	225	SIGNblend_30s70h.wav	l	1473	CAT_SH	2	0	SH_S	1	1	112	F9	226	SIGNblend_20s80h.wav	l	1528	CAT_SH	1	0	SH_S	1	1	112	F9	227	SIGNblend_80s20h.wav	a	1331	CAT_SH	7	1	SH_S	1	1	112	F9	228	SIGNblend_20s80h.wav	l	3358	CAT_SH	1	0	SH_S	1	1	112	F9	229	SIGNblend_80s20h.wav	a	2577	CAT_SH	7	1	SH_S	1	1	112	F9	230	SIGNblend_80s20h.wav	a	2267	CAT_SH	7	1	SH_S	1	1	112	F9	231	SIGNblend_50s50h.wav	l	1368	CAT_SH	4	0	SH_S	1	1	112	F9	232	SIGNblend_70s30h.wav	a	1258	CAT_SH	6	1	SH_S	1	1	112	F9	233	SIGNblend_80s20h.wav	a	1351	CAT_SH	7	1	SH_S	1	1	112	F9	234	SIGNblend_80s20h.wav	a	1410	CAT_SH	7	1	SH_S	1	1	112	F9	235	SIGNblend_30s70h.wav	l	1497	CAT_SH	2	0	SH_S	1	1	112	F9	236	SIGNblend_80s20h.wav	a	1478	CAT_SH	7	1	SH_S	1	1	112	F9	237	SIGNblend_50s50h.wav	l	1459	CAT_SH	4	0	SH_S	1	1	112	F9	238	SIGNblend_70s30h.wav	a	1816	CAT_SH	6	1	SH_S	1	1	112	F9	239	SIGNblend_80s20h.wav	a	1586	CAT_SH	7	1	SH_S	1	1	112	F9	240	SIGNblend_80s20h.wav	a	1748	CAT_SH	7	1	SH_S	1	1	112	F9	241	SIGNblend_80s20h.wav	a	1574	CAT_SH	7	1	SH_S	1	1	112	F9	242	SIGNblend_20s80h.wav	l	1239	CAT_SH	1	0	SH_S	1	1	112	F9	243	SIGNblend_40s60h.wav	l	1076	CAT_SH	3	0	SH_S	1	1	112	F9	244	SIGNblend_80s20h.wav	a	1240	CAT_SH	7	1	SH_S	1	1	112	F9	245	SIGNblend_50s50h.wav	a	1285	CAT_SH	4	1	SH_S	1	1	112	F9	246	SIGNblend_80s20h.wav	a	1466	CAT_SH	7	1	SH_S	1	1	112	F9	247	SIGNblend_80s20h.wav	a	1417	CAT_SH	7	1	SH_S	1	1	112	F9	248	SIGNblend_80s20h.wav	a	1200	CAT_SH	7	1	SH_S	1	1	112	F9	249	SIGNblend_80s20h.wav	a	1452	CAT_SH	7	1	SH_S	1	1	112	F9	250	SIGNblend_80s20h.wav	a	1666	CAT_SH	7	1	SH_S	1	1	112	F9	251	SIGNblend_70s30h.wav	a	1640	CAT_SH	6	1	SH_S	1	1	112	F9	252	SIGNblend_30s70h.wav	l	1392	CAT_SH	2	0	SH_S	1	1	112	F9	253	SIGNblend_60s40h.wav	l	1434	CAT_SH	5	0	SH_S	1	1	112	F9	254	SIGNblend_20s80h.wav	l	1441	CAT_SH	1	0	SH_S	1	1	112	F9	255	SIGNblend_60s40h.wav	l	2135	CAT_SH	5	0	SH_S	1	1	112	F9	256	SIGNblend_40s60h.wav	l	1843	CAT_SH	3	0	SH_S	1	1	112	F9	457	SIGNblend_50s50h.wav	l	3396	CAT_S	4	0	SH_S	1	2	112	F9	458	SIGNblend_80s20h.wav	a	1269	CAT_S	7	1	SH_S	1	2	112	F9	459	SIGNblend_30s70h.wav	l	1065	CAT_S	2	0	SH_S	1	2	112	F9	460	SIGNblend_30s70h.wav	l	1055	CAT_S	2	0	SH_S	1	2	112	F9	461	SIGNblend_60s40h.wav	a	1075	CAT_S	5	1	SH_S	1	2	112	F9	462	SIGNblend_30s70h.wav	l	1103	CAT_S	2	0	SH_S	1	2	112	F9	463	SIGNblend_40s60h.wav	l	1060	CAT_S	3	0	SH_S	1	2	112	F9	464	SIGNblend_80s20h.wav	a	1121	CAT_S	7	1	SH_S	1	2	112	F9	465	SIGNblend_60s40h.wav	a	1174	CAT_S	5	1	SH_S	1	2	112	F9	466	SIGNblend_40s60h.wav	l	1050	CAT_S	3	0	SH_S	1	2	112	F9	467	SIGNblend_50s50h.wav	l	1014	CAT_S	4	0	SH_S	1	2	112	F9	468	SIGNblend_40s60h.wav	l	963	CAT_S	3	0	SH_S	1	2	112	F9	469	SIGNblend_70s30h.wav	a	1039	CAT_S	6	1	SH_S	1	2	112	F9	470	SIGNblend_40s60h.wav	l	981	CAT_S	3	0	SH_S	1	2	112	F9	471	SIGNblend_70s30h.wav	a	1105	CAT_S	6	1	SH_S	1	2	112	F9	472	SIGNblend_30s70h.wav	l	1174	CAT_S	2	0	SH_S	1	2	112	F9	473	SIGNblend_40s60h.wav	l	1113	CAT_S	3	0	SH_S	1	2	112	F9	474	SIGNblend_60s40h.wav	a	1398	CAT_S	5	1	SH_S	1	2	112	F9	475	SIGNblend_60s40h.wav	a	1455	CAT_S	5	1	SH_S	1	2	112	F9	476	SIGNblend_40s60h.wav	l	4374	CAT_S	3	0	SH_S	1	2	112	F9	477	SIGNblend_60s40h.wav	a	2064	CAT_S	5	1	SH_S	1	2	112	F9	478	SIGNblend_30s70h.wav	l	1206	CAT_S	2	0	SH_S	1	2	112	F9	479	SIGNblend_60s40h.wav	a	1938	CAT_S	5	1	SH_S	1	2	112	F9	480	SIGNblend_20s80h.wav	l	1285	CAT_S	1	0	SH_S	1	2	112	F9	481	SIGNblend_50s50h.wav	l	1338	CAT_S	4	0	SH_S	1	2	112	F9	482	SIGNblend_30s70h.wav	l	1629	CAT_S	2	0	SH_S	1	2	112	F9	483	SIGNblend_40s60h.wav	l	1836	CAT_S	3	0	SH_S	1	2	112	F9	484	SIGNblend_40s60h.wav	l	1083	CAT_S	3	0	SH_S	1	2	112	F9	485	SIGNblend_50s50h.wav	l	1312	CAT_S	4	0	SH_S	1	2	112	F9	486	SIGNblend_70s30h.wav	a	1196	CAT_S	6	1	SH_S	1	2	112	F9	487	SIGNblend_40s60h.wav	l	1625	CAT_S	3	0	SH_S	1	2	112	F9	488	SIGNblend_20s80h.wav	l	1248	CAT_S	1	0	SH_S	1	2	112	F9	489	SIGNblend_50s50h.wav	l	1213	CAT_S	4	0	SH_S	1	2	112	F9	490	SIGNblend_50s50h.wav	l	1234	CAT_S	4	0	SH_S	1	2	112	F9	491	SIGNblend_30s70h.wav	l	1494	CAT_S	2	0	SH_S	1	2	112	F9	492	SIGNblend_20s80h.wav	l	1722	CAT_S	1	0	SH_S	1	2	112	F9	493	SIGNblend_20s80h.wav	l	1774	CAT_S	1	0	SH_S	1	2	112	F9	494	SIGNblend_40s60h.wav	l	1666	CAT_S	3	0	SH_S	1	2	112	F9	495	SIGNblend_30s70h.wav	l	1888	CAT_S	2	0	SH_S	1	2	112	F9	496	SIGNblend_50s50h.wav	l	1627	CAT_S	4	0	SH_S	1	2	112	F9	497	SIGNblend_70s30h.wav	a	1468	CAT_S	6	1	SH_S	1	2	112	F9	498	SIGNblend_30s70h.wav	l	1449	CAT_S	2	0	SH_S	1	2	112	F9	499	SIGNblend_20s80h.wav	l	1239	CAT_S	1	0	SH_S	1	2	112	F9	500	SIGNblend_20s80h.wav	l	1236	CAT_S	1	0	SH_S	1	2	112	F9	501	SIGNblend_80s20h.wav	a	1202	CAT_S	7	1	SH_S	1	2	112	F9	502	SIGNblend_50s50h.wav	l	1151	CAT_S	4	0	SH_S	1	2	112	F9	503	SIGNblend_30s70h.wav	l	1131	CAT_S	2	0	SH_S	1	2	112	F9	504	SIGNblend_80s20h.wav	a	1191	CAT_S	7	1	SH_S	1	2	112	F9	505	SIGNblend_20s80h.wav	l	1164	CAT_S	1	0	SH_S	1	2	112	F9	506	SIGNblend_20s80h.wav	l	1105	CAT_S	1	0	SH_S	1	2	112	F9	507	SIGNblend_50s50h.wav	a	1309	CAT_S	4	1	SH_S	1	2	112	F9	508	SIGNblend_70s30h.wav	a	2114	CAT_S	6	1	SH_S	1	2	112	F9	509	SIGNblend_80s20h.wav	a	1606	CAT_S	7	1	SH_S	1	2	112	F9	510	SIGNblend_50s50h.wav	l	1150	CAT_S	4	0	SH_S	1	2	112	F9	511	SIGNblend_20s80h.wav	a	1156	CAT_S	1	1	SH_S	1	2	112	F9	512	SIGNblend_20s80h.wav	l	1040	CAT_S	1	0	SH_S	1	2	116	F12	201	SIGNblend_70s30h.wav	a	1653	CAT_SH	6	1	SH_S	0	1	116	F12	202	SIGNblend_60s40h.wav	a	1427	CAT_SH	5	1	SH_S	0	1	116	F12	203	SIGNblend_80s20h.wav	a	1059	CAT_SH	7	1	SH_S	0	1	116	F12	204	SIGNblend_20s80h.wav	a	1606	CAT_SH	1	1	SH_S	0	1	116	F12	205	SIGNblend_60s40h.wav	a	1248	CAT_SH	5	1	SH_S	0	1	116	F12	206	SIGNblend_30s70h.wav	a	1323	CAT_SH	2	1	SH_S	0	1	116	F12	207	SIGNblend_80s20h.wav	a	1184	CAT_SH	7	1	SH_S	0	1	116	F12	208	SIGNblend_60s40h.wav	a	1141	CAT_SH	5	1	SH_S	0	1	116	F12	209	SIGNblend_80s20h.wav	a	961	CAT_SH	7	1	SH_S	0	1	116	F12	210	SIGNblend_80s20h.wav	a	957	CAT_SH	7	1	SH_S	0	1	116	F12	211	SIGNblend_30s70h.wav	a	761	CAT_SH	2	1	SH_S	0	1	116	F12	212	SIGNblend_40s60h.wav	a	749	CAT_SH	3	1	SH_S	0	1	116	F12	213	SIGNblend_50s50h.wav	a	913	CAT_SH	4	1	SH_S	0	1	116	F12	214	SIGNblend_70s30h.wav	a	701	CAT_SH	6	1	SH_S	0	1	116	F12	215	SIGNblend_20s80h.wav	a	928	CAT_SH	1	1	SH_S	0	1	116	F12	216	SIGNblend_80s20h.wav	a	940	CAT_SH	7	1	SH_S	0	1	116	F12	217	SIGNblend_80s20h.wav	a	921	CAT_SH	7	1	SH_S	0	1	116	F12	218	SIGNblend_80s20h.wav	a	933	CAT_SH	7	1	SH_S	0	1	116	F12	219	SIGNblend_80s20h.wav	a	914	CAT_SH	7	1	SH_S	0	1	116	F12	220	SIGNblend_20s80h.wav	a	975	CAT_SH	1	1	SH_S	0	1	116	F12	221	SIGNblend_80s20h.wav	a	717	CAT_SH	7	1	SH_S	0	1	116	F12	222	SIGNblend_40s60h.wav	a	815	CAT_SH	3	1	SH_S	0	1	116	F12	223	SIGNblend_80s20h.wav	a	797	CAT_SH	7	1	SH_S	0	1	116	F12	224	SIGNblend_40s60h.wav	a	761	CAT_SH	3	1	SH_S	0	1	116	F12	225	SIGNblend_30s70h.wav	a	774	CAT_SH	2	1	SH_S	0	1	116	F12	226	SIGNblend_40s60h.wav	a	682	CAT_SH	3	1	SH_S	0	1	116	F12	227	SIGNblend_50s50h.wav	a	806	CAT_SH	4	1	SH_S	0	1	116	F12	228	SIGNblend_80s20h.wav	a	731	CAT_SH	7	1	SH_S	0	1	116	F12	229	SIGNblend_30s70h.wav	a	735	CAT_SH	2	1	SH_S	0	1	116	F12	230	SIGNblend_80s20h.wav	a	730	CAT_SH	7	1	SH_S	0	1	116	F12	231	SIGNblend_20s80h.wav	a	703	CAT_SH	1	1	SH_S	0	1	116	F12	232	SIGNblend_50s50h.wav	a	668	CAT_SH	4	1	SH_S	0	1	116	F12	233	SIGNblend_70s30h.wav	a	704	CAT_SH	6	1	SH_S	0	1	116	F12	234	SIGNblend_80s20h.wav	a	702	CAT_SH	7	1	SH_S	0	1	116	F12	235	SIGNblend_50s50h.wav	a	617	CAT_SH	4	1	SH_S	0	1	116	F12	236	SIGNblend_70s30h.wav	a	661	CAT_SH	6	1	SH_S	0	1	116	F12	237	SIGNblend_80s20h.wav	a	699	CAT_SH	7	1	SH_S	0	1	116	F12	238	SIGNblend_60s40h.wav	a	622	CAT_SH	5	1	SH_S	0	1	116	F12	239	SIGNblend_60s40h.wav	a	658	CAT_SH	5	1	SH_S	0	1	116	F12	240	SIGNblend_80s20h.wav	a	654	CAT_SH	7	1	SH_S	0	1	116	F12	241	SIGNblend_40s60h.wav	a	707	CAT_SH	3	1	SH_S	0	1	116	F12	242	SIGNblend_80s20h.wav	a	734	CAT_SH	7	1	SH_S	0	1	116	F12	243	SIGNblend_30s70h.wav	a	779	CAT_SH	2	1	SH_S	0	1	116	F12	244	SIGNblend_70s30h.wav	a	662	CAT_SH	6	1	SH_S	0	1	116	F12	245	SIGNblend_80s20h.wav	a	602	CAT_SH	7	1	SH_S	0	1	116	F12	246	SIGNblend_80s20h.wav	a	575	CAT_SH	7	1	SH_S	0	1	116	F12	247	SIGNblend_80s20h.wav	a	507	CAT_SH	7	1	SH_S	0	1	116	F12	248	SIGNblend_80s20h.wav	a	528	CAT_SH	7	1	SH_S	0	1	116	F12	249	SIGNblend_50s50h.wav	a	524	CAT_SH	4	1	SH_S	0	1	116	F12	250	SIGNblend_80s20h.wav	a	499	CAT_SH	7	1	SH_S	0	1	116	F12	251	SIGNblend_80s20h.wav	a	499	CAT_SH	7	1	SH_S	0	1	116	F12	252	SIGNblend_80s20h.wav	a	615	CAT_SH	7	1	SH_S	0	1	116	F12	253	SIGNblend_80s20h.wav	a	595	CAT_SH	7	1	SH_S	0	1	116	F12	254	SIGNblend_20s80h.wav	a	536	CAT_SH	1	1	SH_S	0	1	116	F12	255	SIGNblend_80s20h.wav	a	500	CAT_SH	7	1	SH_S	0	1	116	F12	256	SIGNblend_80s20h.wav	a	584	CAT_SH	7	1	SH_S	0	1	116	F12	457	SIGNblend_40s60h.wav	a	739	CAT_S	3	1	SH_S	0	2	116	F12	458	SIGNblend_30s70h.wav	a	695	CAT_S	2	1	SH_S	0	2	116	F12	459	SIGNblend_20s80h.wav	a	923	CAT_S	1	1	SH_S	0	2	116	F12	460	SIGNblend_50s50h.wav	a	1087	CAT_S	4	1	SH_S	0	2	116	F12	461	SIGNblend_60s40h.wav	a	1357	CAT_S	5	1	SH_S	0	2	116	F12	462	SIGNblend_20s80h.wav	a	1198	CAT_S	1	1	SH_S	0	2	116	F12	463	SIGNblend_50s50h.wav	a	1132	CAT_S	4	1	SH_S	0	2	116	F12	464	SIGNblend_70s30h.wav	a	712	CAT_S	6	1	SH_S	0	2	116	F12	465	SIGNblend_20s80h.wav	a	1108	CAT_S	1	1	SH_S	0	2	116	F12	466	SIGNblend_30s70h.wav	a	1130	CAT_S	2	1	SH_S	0	2	116	F12	467	SIGNblend_80s20h.wav	a	1110	CAT_S	7	1	SH_S	0	2	116	F12	468	SIGNblend_20s80h.wav	a	1130	CAT_S	1	1	SH_S	0	2	116	F12	469	SIGNblend_50s50h.wav	a	967	CAT_S	4	1	SH_S	0	2	116	F12	470	SIGNblend_80s20h.wav	a	907	CAT_S	7	1	SH_S	0	2	116	F12	471	SIGNblend_50s50h.wav	a	902	CAT_S	4	1	SH_S	0	2	116	F12	472	SIGNblend_30s70h.wav	a	963	CAT_S	2	1	SH_S	0	2	116	F12	473	SIGNblend_30s70h.wav	a	935	CAT_S	2	1	SH_S	0	2	116	F12	474	SIGNblend_30s70h.wav	a	923	CAT_S	2	1	SH_S	0	2	116	F12	475	SIGNblend_40s60h.wav	a	1095	CAT_S	3	1	SH_S	0	2	116	F12	476	SIGNblend_20s80h.wav	a	1156	CAT_S	1	1	SH_S	0	2	116	F12	477	SIGNblend_80s20h.wav	a	1056	CAT_S	7	1	SH_S	0	2	116	F12	478	SIGNblend_80s20h.wav	a	926	CAT_S	7	1	SH_S	0	2	116	F12	479	SIGNblend_20s80h.wav	a	745	CAT_S	1	1	SH_S	0	2	116	F12	480	SIGNblend_40s60h.wav	a	710	CAT_S	3	1	SH_S	0	2	116	F12	481	SIGNblend_50s50h.wav	a	779	CAT_S	4	1	SH_S	0	2	116	F12	482	SIGNblend_60s40h.wav	a	991	CAT_S	5	1	SH_S	0	2	116	F12	483	SIGNblend_40s60h.wav	a	1036	CAT_S	3	1	SH_S	0	2	116	F12	484	SIGNblend_50s50h.wav	a	872	CAT_S	4	1	SH_S	0	2	116	F12	485	SIGNblend_40s60h.wav	a	933	CAT_S	3	1	SH_S	0	2	116	F12	486	SIGNblend_50s50h.wav	a	729	CAT_S	4	1	SH_S	0	2	116	F12	487	SIGNblend_80s20h.wav	a	695	CAT_S	7	1	SH_S	0	2	116	F12	488	SIGNblend_70s30h.wav	a	708	CAT_S	6	1	SH_S	0	2	116	F12	489	SIGNblend_20s80h.wav	a	670	CAT_S	1	1	SH_S	0	2	116	F12	490	SIGNblend_30s70h.wav	a	764	CAT_S	2	1	SH_S	0	2	116	F12	491	SIGNblend_60s40h.wav	a	679	CAT_S	5	1	SH_S	0	2	116	F12	492	SIGNblend_70s30h.wav	a	675	CAT_S	6	1	SH_S	0	2	116	F12	493	SIGNblend_60s40h.wav	a	703	CAT_S	5	1	SH_S	0	2	116	F12	494	SIGNblend_30s70h.wav	a	707	CAT_S	2	1	SH_S	0	2	116	F12	495	SIGNblend_40s60h.wav	a	729	CAT_S	3	1	SH_S	0	2	116	F12	496	SIGNblend_70s30h.wav	a	597	CAT_S	6	1	SH_S	0	2	116	F12	497	SIGNblend_40s60h.wav	a	633	CAT_S	3	1	SH_S	0	2	116	F12	498	SIGNblend_70s30h.wav	a	499	CAT_S	6	1	SH_S	0	2	116	F12	499	SIGNblend_30s70h.wav	a	659	CAT_S	2	1	SH_S	0	2	116	F12	500	SIGNblend_50s50h.wav	a	537	CAT_S	4	1	SH_S	0	2	116	F12	501	SIGNblend_50s50h.wav	a	557	CAT_S	4	1	SH_S	0	2	116	F12	502	SIGNblend_30s70h.wav	a	650	CAT_S	2	1	SH_S	0	2	116	F12	503	SIGNblend_50s50h.wav	a	500	CAT_S	4	1	SH_S	0	2	116	F12	504	SIGNblend_40s60h.wav	a	508	CAT_S	3	1	SH_S	0	2	116	F12	505	SIGNblend_40s60h.wav	a	712	CAT_S	3	1	SH_S	0	2	116	F12	506	SIGNblend_30s70h.wav	a	851	CAT_S	2	1	SH_S	0	2	116	F12	507	SIGNblend_60s40h.wav	a	655	CAT_S	5	1	SH_S	0	2	116	F12	508	SIGNblend_20s80h.wav	a	660	CAT_S	1	1	SH_S	0	2	116	F12	509	SIGNblend_20s80h.wav	a	721	CAT_S	1	1	SH_S	0	2	116	F12	510	SIGNblend_20s80h.wav	a	694	CAT_S	1	1	SH_S	0	2	116	F12	511	SIGNblend_40s60h.wav	a	825	CAT_S	3	1	SH_S	0	2	116	F12	512	SIGNblend_60s40h.wav	a	710	CAT_S	5	1	SH_S	0	2	119	F7	201	SIGNblend_30s70h.wav	l	1668	CAT_S	2	1	S_SH	1	2	119	F7	202	SIGNblend_30s70h.wav	l	1777	CAT_S	2	1	S_SH	1	2	119	F7	203	SIGNblend_20s80h.wav	a	1707	CAT_S	1	0	S_SH	1	2	119	F7	204	SIGNblend_60s40h.wav	l	1655	CAT_S	5	1	S_SH	1	2	119	F7	205	SIGNblend_20s80h.wav	a	1534	CAT_S	1	0	S_SH	1	2	119	F7	206	SIGNblend_30s70h.wav	l	3066	CAT_S	2	1	S_SH	1	2	119	F7	207	SIGNblend_20s80h.wav	l	1814	CAT_S	1	1	S_SH	1	2	119	F7	208	SIGNblend_30s70h.wav	l	1440	CAT_S	2	1	S_SH	1	2	119	F7	209	SIGNblend_20s80h.wav	a	1343	CAT_S	1	0	S_SH	1	2	119	F7	210	SIGNblend_50s50h.wav	l	1369	CAT_S	4	1	S_SH	1	2	119	F7	211	SIGNblend_50s50h.wav	l	1483	CAT_S	4	1	S_SH	1	2	119	F7	212	SIGNblend_70s30h.wav	l	1480	CAT_S	6	1	S_SH	1	2	119	F7	213	SIGNblend_40s60h.wav	l	1631	CAT_S	3	1	S_SH	1	2	119	F7	214	SIGNblend_70s30h.wav	l	1565	CAT_S	6	1	S_SH	1	2	119	F7	215	SIGNblend_30s70h.wav	a	1567	CAT_S	2	0	S_SH	1	2	119	F7	216	SIGNblend_80s20h.wav	l	1504	CAT_S	7	1	S_SH	1	2	119	F7	217	SIGNblend_50s50h.wav	l	1702	CAT_S	4	1	S_SH	1	2	119	F7	218	SIGNblend_60s40h.wav	l	1618	CAT_S	5	1	S_SH	1	2	119	F7	219	SIGNblend_20s80h.wav	a	1458	CAT_S	1	0	S_SH	1	2	119	F7	220	SIGNblend_40s60h.wav	l	1665	CAT_S	3	1	S_SH	1	2	119	F7	221	SIGNblend_80s20h.wav	l	1583	CAT_S	7	1	S_SH	1	2	119	F7	222	SIGNblend_50s50h.wav	l	1577	CAT_S	4	1	S_SH	1	2	119	F7	223	SIGNblend_60s40h.wav	l	1761	CAT_S	5	1	S_SH	1	2	119	F7	224	SIGNblend_40s60h.wav	l	1653	CAT_S	3	1	S_SH	1	2	119	F7	225	SIGNblend_60s40h.wav	l	2043	CAT_S	5	1	S_SH	1	2	119	F7	226	SIGNblend_50s50h.wav	l	1642	CAT_S	4	1	S_SH	1	2	119	F7	227	SIGNblend_40s60h.wav	l	1617	CAT_S	3	1	S_SH	1	2	119	F7	228	SIGNblend_60s40h.wav	l	1474	CAT_S	5	1	S_SH	1	2	119	F7	229	SIGNblend_30s70h.wav	a	1600	CAT_S	2	0	S_SH	1	2	119	F7	230	SIGNblend_70s30h.wav	l	1576	CAT_S	6	1	S_SH	1	2	119	F7	231	SIGNblend_50s50h.wav	l	1418	CAT_S	4	1	S_SH	1	2	119	F7	232	SIGNblend_60s40h.wav	l	1385	CAT_S	5	1	S_SH	1	2	119	F7	233	SIGNblend_50s50h.wav	l	1868	CAT_S	4	1	S_SH	1	2	119	F7	234	SIGNblend_30s70h.wav	l	1888	CAT_S	2	1	S_SH	1	2	119	F7	235	SIGNblend_30s70h.wav	a	1517	CAT_S	2	0	S_SH	1	2	119	F7	236	SIGNblend_30s70h.wav	a	1491	CAT_S	2	0	S_SH	1	2	119	F7	237	SIGNblend_50s50h.wav	l	1463	CAT_S	4	1	S_SH	1	2	119	F7	238	SIGNblend_20s80h.wav	a	1421	CAT_S	1	0	S_SH	1	2	119	F7	239	SIGNblend_40s60h.wav	l	1389	CAT_S	3	1	S_SH	1	2	119	F7	240	SIGNblend_20s80h.wav	a	1488	CAT_S	1	0	S_SH	1	2	119	F7	241	SIGNblend_80s20h.wav	l	1540	CAT_S	7	1	S_SH	1	2	119	F7	242	SIGNblend_40s60h.wav	l	1558	CAT_S	3	1	S_SH	1	2	119	F7	243	SIGNblend_20s80h.wav	a	1458	CAT_S	1	0	S_SH	1	2	119	F7	244	SIGNblend_80s20h.wav	l	1529	CAT_S	7	1	S_SH	1	2	119	F7	245	SIGNblend_40s60h.wav	l	1556	CAT_S	3	1	S_SH	1	2	119	F7	246	SIGNblend_70s30h.wav	l	1648	CAT_S	6	1	S_SH	1	2	119	F7	247	SIGNblend_50s50h.wav	l	1813	CAT_S	4	1	S_SH	1	2	119	F7	248	SIGNblend_40s60h.wav	l	1668	CAT_S	3	1	S_SH	1	2	119	F7	249	SIGNblend_20s80h.wav	a	1402	CAT_S	1	0	S_SH	1	2	119	F7	250	SIGNblend_70s30h.wav	l	1643	CAT_S	6	1	S_SH	1	2	119	F7	251	SIGNblend_80s20h.wav	l	1531	CAT_S	7	1	S_SH	1	2	119	F7	252	SIGNblend_50s50h.wav	l	1454	CAT_S	4	1	S_SH	1	2	119	F7	253	SIGNblend_40s60h.wav	l	1556	CAT_S	3	1	S_SH	1	2	119	F7	254	SIGNblend_40s60h.wav	l	2232	CAT_S	3	1	S_SH	1	2	119	F7	255	SIGNblend_20s80h.wav	a	1407	CAT_S	1	0	S_SH	1	2	119	F7	256	SIGNblend_30s70h.wav	a	1448	CAT_S	2	0	S_SH	1	2	119	F7	457	SIGNblend_80s20h.wav	l	1588	CAT_SH	7	1	S_SH	1	1	119	F7	458	SIGNblend_20s80h.wav	a	1365	CAT_SH	1	0	S_SH	1	1	119	F7	459	SIGNblend_80s20h.wav	l	1319	CAT_SH	7	1	S_SH	1	1	119	F7	460	SIGNblend_80s20h.wav	l	1413	CAT_SH	7	1	S_SH	1	1	119	F7	461	SIGNblend_50s50h.wav	l	1380	CAT_SH	4	1	S_SH	1	1	119	F7	462	SIGNblend_80s20h.wav	l	1454	CAT_SH	7	1	S_SH	1	1	119	F7	463	SIGNblend_70s30h.wav	l	1413	CAT_SH	6	1	S_SH	1	1	119	F7	464	SIGNblend_60s40h.wav	l	1357	CAT_SH	5	1	S_SH	1	1	119	F7	465	SIGNblend_20s80h.wav	a	1431	CAT_SH	1	0	S_SH	1	1	119	F7	466	SIGNblend_70s30h.wav	l	1255	CAT_SH	6	1	S_SH	1	1	119	F7	467	SIGNblend_80s20h.wav	l	1170	CAT_SH	7	1	S_SH	1	1	119	F7	468	SIGNblend_60s40h.wav	l	1143	CAT_SH	5	1	S_SH	1	1	119	F7	469	SIGNblend_80s20h.wav	l	1284	CAT_SH	7	1	S_SH	1	1	119	F7	470	SIGNblend_70s30h.wav	l	1433	CAT_SH	6	1	S_SH	1	1	119	F7	471	SIGNblend_20s80h.wav	a	1400	CAT_SH	1	0	S_SH	1	1	119	F7	472	SIGNblend_80s20h.wav	l	1409	CAT_SH	7	1	S_SH	1	1	119	F7	473	SIGNblend_20s80h.wav	a	1449	CAT_SH	1	0	S_SH	1	1	119	F7	474	SIGNblend_40s60h.wav	l	1439	CAT_SH	3	1	S_SH	1	1	119	F7	475	SIGNblend_80s20h.wav	l	1312	CAT_SH	7	1	S_SH	1	1	119	F7	476	SIGNblend_80s20h.wav	l	1404	CAT_SH	7	1	S_SH	1	1	119	F7	477	SIGNblend_70s30h.wav	l	1492	CAT_SH	6	1	S_SH	1	1	119	F7	478	SIGNblend_80s20h.wav	l	1482	CAT_SH	7	1	S_SH	1	1	119	F7	479	SIGNblend_70s30h.wav	l	1558	CAT_SH	6	1	S_SH	1	1	119	F7	480	SIGNblend_80s20h.wav	l	1537	CAT_SH	7	1	S_SH	1	1	119	F7	481	SIGNblend_60s40h.wav	l	1613	CAT_SH	5	1	S_SH	1	1	119	F7	482	SIGNblend_50s50h.wav	l	1716	CAT_SH	4	1	S_SH	1	1	119	F7	483	SIGNblend_80s20h.wav	l	1408	CAT_SH	7	1	S_SH	1	1	119	F7	484	SIGNblend_50s50h.wav	l	1418	CAT_SH	4	1	S_SH	1	1	119	F7	485	SIGNblend_40s60h.wav	a	1363	CAT_SH	3	0	S_SH	1	1	119	F7	486	SIGNblend_80s20h.wav	l	1332	CAT_SH	7	1	S_SH	1	1	119	F7	487	SIGNblend_30s70h.wav	a	1399	CAT_SH	2	0	S_SH	1	1	119	F7	488	SIGNblend_80s20h.wav	l	1359	CAT_SH	7	1	S_SH	1	1	119	F7	489	SIGNblend_60s40h.wav	l	1994	CAT_SH	5	1	S_SH	1	1	119	F7	490	SIGNblend_80s20h.wav	l	1189	CAT_SH	7	1	S_SH	1	1	119	F7	491	SIGNblend_80s20h.wav	l	1400	CAT_SH	7	1	S_SH	1	1	119	F7	492	SIGNblend_50s50h.wav	l	1600	CAT_SH	4	1	S_SH	1	1	119	F7	493	SIGNblend_30s70h.wav	a	1378	CAT_SH	2	0	S_SH	1	1	119	F7	494	SIGNblend_80s20h.wav	l	1419	CAT_SH	7	1	S_SH	1	1	119	F7	495	SIGNblend_80s20h.wav	l	1635	CAT_SH	7	1	S_SH	1	1	119	F7	496	SIGNblend_40s60h.wav	a	1362	CAT_SH	3	0	S_SH	1	1	119	F7	497	SIGNblend_80s20h.wav	l	1446	CAT_SH	7	1	S_SH	1	1	119	F7	498	SIGNblend_80s20h.wav	l	1588	CAT_SH	7	1	S_SH	1	1	119	F7	499	SIGNblend_30s70h.wav	a	1692	CAT_SH	2	0	S_SH	1	1	119	F7	500	SIGNblend_40s60h.wav	a	2369	CAT_SH	3	0	S_SH	1	1	119	F7	501	SIGNblend_80s20h.wav	l	1459	CAT_SH	7	1	S_SH	1	1	119	F7	502	SIGNblend_30s70h.wav	a	1315	CAT_SH	2	0	S_SH	1	1	119	F7	503	SIGNblend_20s80h.wav	a	1319	CAT_SH	1	0	S_SH	1	1	119	F7	504	SIGNblend_80s20h.wav	l	1451	CAT_SH	7	1	S_SH	1	1	119	F7	505	SIGNblend_30s70h.wav	a	1465	CAT_SH	2	0	S_SH	1	1	119	F7	506	SIGNblend_80s20h.wav	l	1376	CAT_SH	7	1	S_SH	1	1	119	F7	507	SIGNblend_50s50h.wav	l	1514	CAT_SH	4	1	S_SH	1	1	119	F7	508	SIGNblend_40s60h.wav	a	1366	CAT_SH	3	0	S_SH	1	1	119	F7	509	SIGNblend_80s20h.wav	l	1366	CAT_SH	7	1	S_SH	1	1	119	F7	510	SIGNblend_60s40h.wav	l	1384	CAT_SH	5	1	S_SH	1	1	119	F7	511	SIGNblend_80s20h.wav	l	1595	CAT_SH	7	1	S_SH	1	1	119	F7	512	SIGNblend_80s20h.wav	l	1979	CAT_SH	7	1	S_SH	1	1	121	F10	201	SIGNblend_30s70h.wav	a	1617	CAT_S	2	1	S_SH	1	2	121	F10	202	SIGNblend_60s40h.wav	a	1385	CAT_S	5	1	S_SH	1	2	121	F10	203	SIGNblend_60s40h.wav	a	1507	CAT_S	5	1	S_SH	1	2	121	F10	204	SIGNblend_70s30h.wav	a	1583	CAT_S	6	1	S_SH	1	2	121	F10	205	SIGNblend_30s70h.wav	l	1505	CAT_S	2	0	S_SH	1	2	121	F10	206	SIGNblend_80s20h.wav	a	1636	CAT_S	7	1	S_SH	1	2	121	F10	207	SIGNblend_20s80h.wav	l	1276	CAT_S	1	0	S_SH	1	2	121	F10	208	SIGNblend_20s80h.wav	l	1145	CAT_S	1	0	S_SH	1	2	121	F10	209	SIGNblend_40s60h.wav	l	1012	CAT_S	3	0	S_SH	1	2	121	F10	210	SIGNblend_60s40h.wav	a	1009	CAT_S	5	1	S_SH	1	2	121	F10	211	SIGNblend_70s30h.wav	a	1109	CAT_S	6	1	S_SH	1	2	121	F10	212	SIGNblend_40s60h.wav	l	1058	CAT_S	3	0	S_SH	1	2	121	F10	213	SIGNblend_60s40h.wav	a	1061	CAT_S	5	1	S_SH	1	2	121	F10	214	SIGNblend_20s80h.wav	l	1002	CAT_S	1	0	S_SH	1	2	121	F10	215	SIGNblend_40s60h.wav	l	1205	CAT_S	3	0	S_SH	1	2	121	F10	216	SIGNblend_30s70h.wav	l	1162	CAT_S	2	0	S_SH	1	2	121	F10	217	SIGNblend_40s60h.wav	l	1135	CAT_S	3	0	S_SH	1	2	121	F10	218	SIGNblend_20s80h.wav	l	1131	CAT_S	1	0	S_SH	1	2	121	F10	219	SIGNblend_30s70h.wav	l	1311	CAT_S	2	0	S_SH	1	2	121	F10	220	SIGNblend_40s60h.wav	l	1420	CAT_S	3	0	S_SH	1	2	121	F10	221	SIGNblend_50s50h.wav	l	1571	CAT_S	4	0	S_SH	1	2	121	F10	222	SIGNblend_30s70h.wav	l	1478	CAT_S	2	0	S_SH	1	2	121	F10	223	SIGNblend_20s80h.wav	l	1260	CAT_S	1	0	S_SH	1	2	121	F10	224	SIGNblend_80s20h.wav	a	1303	CAT_S	7	1	S_SH	1	2	121	F10	225	SIGNblend_20s80h.wav	l	1292	CAT_S	1	0	S_SH	1	2	121	F10	226	SIGNblend_20s80h.wav	l	1201	CAT_S	1	0	S_SH	1	2	121	F10	227	SIGNblend_20s80h.wav	l	1212	CAT_S	1	0	S_SH	1	2	121	F10	228	SIGNblend_50s50h.wav	a	1104	CAT_S	4	1	S_SH	1	2	121	F10	229	SIGNblend_50s50h.wav	a	1141	CAT_S	4	1	S_SH	1	2	121	F10	230	SIGNblend_50s50h.wav	a	1080	CAT_S	4	1	S_SH	1	2	121	F10	231	SIGNblend_60s40h.wav	a	917	CAT_S	5	1	S_SH	1	2	121	F10	232	SIGNblend_40s60h.wav	l	1145	CAT_S	3	0	S_SH	1	2	121	F10	233	SIGNblend_30s70h.wav	l	998	CAT_S	2	0	S_SH	1	2	121	F10	234	SIGNblend_40s60h.wav	l	929	CAT_S	3	0	S_SH	1	2	121	F10	235	SIGNblend_80s20h.wav	a	1133	CAT_S	7	1	S_SH	1	2	121	F10	236	SIGNblend_50s50h.wav	a	1153	CAT_S	4	1	S_SH	1	2	121	F10	237	SIGNblend_30s70h.wav	l	943	CAT_S	2	0	S_SH	1	2	121	F10	238	SIGNblend_70s30h.wav	a	1043	CAT_S	6	1	S_SH	1	2	121	F10	239	SIGNblend_20s80h.wav	l	990	CAT_S	1	0	S_SH	1	2	121	F10	240	SIGNblend_40s60h.wav	l	1130	CAT_S	3	0	S_SH	1	2	121	F10	241	SIGNblend_30s70h.wav	l	1118	CAT_S	2	0	S_SH	1	2	121	F10	242	SIGNblend_30s70h.wav	l	1051	CAT_S	2	0	S_SH	1	2	121	F10	243	SIGNblend_60s40h.wav	a	1000	CAT_S	5	1	S_SH	1	2	121	F10	244	SIGNblend_40s60h.wav	l	1101	CAT_S	3	0	S_SH	1	2	121	F10	245	SIGNblend_50s50h.wav	a	1208	CAT_S	4	1	S_SH	1	2	121	F10	246	SIGNblend_50s50h.wav	a	1060	CAT_S	4	1	S_SH	1	2	121	F10	247	SIGNblend_40s60h.wav	l	946	CAT_S	3	0	S_SH	1	2	121	F10	248	SIGNblend_20s80h.wav	l	814	CAT_S	1	0	S_SH	1	2	121	F10	249	SIGNblend_80s20h.wav	a	1050	CAT_S	7	1	S_SH	1	2	121	F10	250	SIGNblend_50s50h.wav	a	1509	CAT_S	4	1	S_SH	1	2	121	F10	251	SIGNblend_30s70h.wav	l	1242	CAT_S	2	0	S_SH	1	2	121	F10	252	SIGNblend_50s50h.wav	a	1222	CAT_S	4	1	S_SH	1	2	121	F10	253	SIGNblend_70s30h.wav	a	1177	CAT_S	6	1	S_SH	1	2	121	F10	254	SIGNblend_50s50h.wav	a	1285	CAT_S	4	1	S_SH	1	2	121	F10	255	SIGNblend_70s30h.wav	a	1177	CAT_S	6	1	S_SH	1	2	121	F10	256	SIGNblend_80s20h.wav	a	1159	CAT_S	7	1	S_SH	1	2	121	F10	457	SIGNblend_50s50h.wav	a	1144	CAT_SH	4	1	S_SH	1	1	121	F10	458	SIGNblend_80s20h.wav	a	1181	CAT_SH	7	1	S_SH	1	1	121	F10	459	SIGNblend_30s70h.wav	l	1146	CAT_SH	2	0	S_SH	1	1	121	F10	460	SIGNblend_40s60h.wav	a	1333	CAT_SH	3	1	S_SH	1	1	121	F10	461	SIGNblend_40s60h.wav	a	1577	CAT_SH	3	1	S_SH	1	1	121	F10	462	SIGNblend_80s20h.wav	a	1675	CAT_SH	7	1	S_SH	1	1	121	F10	463	SIGNblend_80s20h.wav	a	1753	CAT_SH	7	1	S_SH	1	1	121	F10	464	SIGNblend_80s20h.wav	a	1427	CAT_SH	7	1	S_SH	1	1	121	F10	465	SIGNblend_60s40h.wav	a	1241	CAT_SH	5	1	S_SH	1	1	121	F10	466	SIGNblend_80s20h.wav	a	1254	CAT_SH	7	1	S_SH	1	1	121	F10	467	SIGNblend_20s80h.wav	l	1051	CAT_SH	1	0	S_SH	1	1	121	F10	468	SIGNblend_20s80h.wav	l	928	CAT_SH	1	0	S_SH	1	1	121	F10	469	SIGNblend_60s40h.wav	a	1052	CAT_SH	5	1	S_SH	1	1	121	F10	470	SIGNblend_80s20h.wav	a	1008	CAT_SH	7	1	S_SH	1	1	121	F10	471	SIGNblend_80s20h.wav	a	887	CAT_SH	7	1	S_SH	1	1	121	F10	472	SIGNblend_80s20h.wav	a	827	CAT_SH	7	1	S_SH	1	1	121	F10	473	SIGNblend_80s20h.wav	a	1215	CAT_SH	7	1	S_SH	1	1	121	F10	474	SIGNblend_80s20h.wav	a	1235	CAT_SH	7	1	S_SH	1	1	121	F10	475	SIGNblend_20s80h.wav	l	1112	CAT_SH	1	0	S_SH	1	1	121	F10	476	SIGNblend_80s20h.wav	a	1101	CAT_SH	7	1	S_SH	1	1	121	F10	477	SIGNblend_80s20h.wav	a	1042	CAT_SH	7	1	S_SH	1	1	121	F10	478	SIGNblend_70s30h.wav	a	957	CAT_SH	6	1	S_SH	1	1	121	F10	479	SIGNblend_50s50h.wav	a	1050	CAT_SH	4	1	S_SH	1	1	121	F10	480	SIGNblend_20s80h.wav	l	976	CAT_SH	1	0	S_SH	1	1	121	F10	481	SIGNblend_40s60h.wav	l	1051	CAT_SH	3	0	S_SH	1	1	121	F10	482	SIGNblend_80s20h.wav	a	1145	CAT_SH	7	1	S_SH	1	1	121	F10	483	SIGNblend_80s20h.wav	a	1083	CAT_SH	7	1	S_SH	1	1	121	F10	484	SIGNblend_80s20h.wav	a	952	CAT_SH	7	1	S_SH	1	1	121	F10	485	SIGNblend_40s60h.wav	l	917	CAT_SH	3	0	S_SH	1	1	121	F10	486	SIGNblend_80s20h.wav	a	969	CAT_SH	7	1	S_SH	1	1	121	F10	487	SIGNblend_80s20h.wav	a	1030	CAT_SH	7	1	S_SH	1	1	121	F10	488	SIGNblend_70s30h.wav	a	1002	CAT_SH	6	1	S_SH	1	1	121	F10	489	SIGNblend_80s20h.wav	a	822	CAT_SH	7	1	S_SH	1	1	121	F10	490	SIGNblend_70s30h.wav	a	861	CAT_SH	6	1	S_SH	1	1	121	F10	491	SIGNblend_80s20h.wav	a	865	CAT_SH	7	1	S_SH	1	1	121	F10	492	SIGNblend_50s50h.wav	l	949	CAT_SH	4	0	S_SH	1	1	121	F10	493	SIGNblend_50s50h.wav	l	1073	CAT_SH	4	0	S_SH	1	1	121	F10	494	SIGNblend_40s60h.wav	l	935	CAT_SH	3	0	S_SH	1	1	121	F10	495	SIGNblend_50s50h.wav	l	947	CAT_SH	4	0	S_SH	1	1	121	F10	496	SIGNblend_70s30h.wav	a	960	CAT_SH	6	1	S_SH	1	1	121	F10	497	SIGNblend_70s30h.wav	a	837	CAT_SH	6	1	S_SH	1	1	121	F10	498	SIGNblend_80s20h.wav	a	809	CAT_SH	7	1	S_SH	1	1	121	F10	499	SIGNblend_30s70h.wav	l	1077	CAT_SH	2	0	S_SH	1	1	121	F10	500	SIGNblend_80s20h.wav	a	1025	CAT_SH	7	1	S_SH	1	1	121	F10	501	SIGNblend_20s80h.wav	l	895	CAT_SH	1	0	S_SH	1	1	121	F10	502	SIGNblend_30s70h.wav	l	1067	CAT_SH	2	0	S_SH	1	1	121	F10	503	SIGNblend_60s40h.wav	a	976	CAT_SH	5	1	S_SH	1	1	121	F10	504	SIGNblend_30s70h.wav	l	1044	CAT_SH	2	0	S_SH	1	1	121	F10	505	SIGNblend_80s20h.wav	a	1033	CAT_SH	7	1	S_SH	1	1	121	F10	506	SIGNblend_60s40h.wav	a	1070	CAT_SH	5	1	S_SH	1	1	121	F10	507	SIGNblend_80s20h.wav	a	1067	CAT_SH	7	1	S_SH	1	1	121	F10	508	SIGNblend_80s20h.wav	a	1015	CAT_SH	7	1	S_SH	1	1	121	F10	509	SIGNblend_80s20h.wav	a	901	CAT_SH	7	1	S_SH	1	1	121	F10	510	SIGNblend_30s70h.wav	l	961	CAT_SH	2	0	S_SH	1	1	121	F10	511	SIGNblend_80s20h.wav	l	886	CAT_SH	7	0	S_SH	1	1	121	F10	512	SIGNblend_60s40h.wav	a	1114	CAT_SH	5	1	S_SH	1	1	122	F1	201	SIGNblend_80s20h.wav	l	2430	CAT_SH	7	1	S_SH	0	1	122	F1	202	SIGNblend_50s50h.wav	l	1509	CAT_SH	4	1	S_SH	0	1	122	F1	203	SIGNblend_80s20h.wav	l	1499	CAT_SH	7	1	S_SH	0	1	122	F1	204	SIGNblend_80s20h.wav	l	1502	CAT_SH	7	1	S_SH	0	1	122	F1	205	SIGNblend_80s20h.wav	l	1565	CAT_SH	7	1	S_SH	0	1	122	F1	206	SIGNblend_60s40h.wav	l	1350	CAT_SH	5	1	S_SH	0	1	122	F1	207	SIGNblend_50s50h.wav	l	1409	CAT_SH	4	1	S_SH	0	1	122	F1	208	SIGNblend_80s20h.wav	l	1305	CAT_SH	7	1	S_SH	0	1	122	F1	209	SIGNblend_80s20h.wav	l	1413	CAT_SH	7	1	S_SH	0	1	122	F1	210	SIGNblend_30s70h.wav	a	1509	CAT_SH	2	0	S_SH	0	1	122	F1	211	SIGNblend_40s60h.wav	a	1346	CAT_SH	3	0	S_SH	0	1	122	F1	212	SIGNblend_50s50h.wav	a	1187	CAT_SH	4	0	S_SH	0	1	122	F1	213	SIGNblend_80s20h.wav	l	1224	CAT_SH	7	1	S_SH	0	1	122	F1	214	SIGNblend_40s60h.wav	a	1221	CAT_SH	3	0	S_SH	0	1	122	F1	215	SIGNblend_80s20h.wav	l	1297	CAT_SH	7	1	S_SH	0	1	122	F1	216	SIGNblend_20s80h.wav	a	1278	CAT_SH	1	0	S_SH	0	1	122	F1	217	SIGNblend_80s20h.wav	l	1234	CAT_SH	7	1	S_SH	0	1	122	F1	218	SIGNblend_30s70h.wav	a	1231	CAT_SH	2	0	S_SH	0	1	122	F1	219	SIGNblend_80s20h.wav	l	1210	CAT_SH	7	1	S_SH	0	1	122	F1	220	SIGNblend_60s40h.wav	l	1207	CAT_SH	5	1	S_SH	0	1	122	F1	221	SIGNblend_50s50h.wav	l	1244	CAT_SH	4	1	S_SH	0	1	122	F1	222	SIGNblend_80s20h.wav	l	1279	CAT_SH	7	1	S_SH	0	1	122	F1	223	SIGNblend_80s20h.wav	l	1260	CAT_SH	7	1	S_SH	0	1	122	F1	224	SIGNblend_80s20h.wav	l	1257	CAT_SH	7	1	S_SH	0	1	122	F1	225	SIGNblend_70s30h.wav	l	1252	CAT_SH	6	1	S_SH	0	1	122	F1	226	SIGNblend_60s40h.wav	l	1312	CAT_SH	5	1	S_SH	0	1	122	F1	227	SIGNblend_80s20h.wav	l	1284	CAT_SH	7	1	S_SH	0	1	122	F1	228	SIGNblend_80s20h.wav	l	1248	CAT_SH	7	1	S_SH	0	1	122	F1	229	SIGNblend_40s60h.wav	l	1204	CAT_SH	3	1	S_SH	0	1	122	F1	230	SIGNblend_70s30h.wav	l	1201	CAT_SH	6	1	S_SH	0	1	122	F1	231	SIGNblend_80s20h.wav	l	1197	CAT_SH	7	1	S_SH	0	1	122	F1	232	SIGNblend_80s20h.wav	l	1210	CAT_SH	7	1	S_SH	0	1	122	F1	233	SIGNblend_40s60h.wav	a	1294	CAT_SH	3	0	S_SH	0	1	122	F1	234	SIGNblend_60s40h.wav	l	1178	CAT_SH	5	1	S_SH	0	1	122	F1	235	SIGNblend_20s80h.wav	a	1190	CAT_SH	1	0	S_SH	0	1	122	F1	236	SIGNblend_70s30h.wav	l	1283	CAT_SH	6	1	S_SH	0	1	122	F1	237	SIGNblend_30s70h.wav	a	1120	CAT_SH	2	0	S_SH	0	1	122	F1	238	SIGNblend_70s30h.wav	l	1298	CAT_SH	6	1	S_SH	0	1	122	F1	239	SIGNblend_80s20h.wav	l	1231	CAT_SH	7	1	S_SH	0	1	122	F1	240	SIGNblend_20s80h.wav	a	1227	CAT_SH	1	0	S_SH	0	1	122	F1	241	SIGNblend_80s20h.wav	l	1296	CAT_SH	7	1	S_SH	0	1	122	F1	242	SIGNblend_20s80h.wav	a	1219	CAT_SH	1	0	S_SH	0	1	122	F1	243	SIGNblend_30s70h.wav	a	1176	CAT_SH	2	0	S_SH	0	1	122	F1	244	SIGNblend_80s20h.wav	l	1214	CAT_SH	7	1	S_SH	0	1	122	F1	245	SIGNblend_70s30h.wav	l	1218	CAT_SH	6	1	S_SH	0	1	122	F1	246	SIGNblend_80s20h.wav	l	1221	CAT_SH	7	1	S_SH	0	1	122	F1	247	SIGNblend_20s80h.wav	a	1234	CAT_SH	1	0	S_SH	0	1	122	F1	248	SIGNblend_60s40h.wav	l	1294	CAT_SH	5	1	S_SH	0	1	122	F1	249	SIGNblend_50s50h.wav	a	2985	CAT_SH	4	0	S_SH	0	1	122	F1	250	SIGNblend_80s20h.wav	l	1354	CAT_SH	7	1	S_SH	0	1	122	F1	251	SIGNblend_80s20h.wav	l	1294	CAT_SH	7	1	S_SH	0	1	122	F1	252	SIGNblend_80s20h.wav	l	1234	CAT_SH	7	1	S_SH	0	1	122	F1	253	SIGNblend_80s20h.wav	l	1278	CAT_SH	7	1	S_SH	0	1	122	F1	254	SIGNblend_80s20h.wav	l	1161	CAT_SH	7	1	S_SH	0	1	122	F1	255	SIGNblend_40s60h.wav	a	1198	CAT_SH	3	0	S_SH	0	1	122	F1	256	SIGNblend_30s70h.wav	a	1193	CAT_SH	2	0	S_SH	0	1	122	F1	457	SIGNblend_40s60h.wav	l	2255	CAT_S	3	1	S_SH	0	2	122	F1	458	SIGNblend_70s30h.wav	l	1172	CAT_S	6	1	S_SH	0	2	122	F1	459	SIGNblend_40s60h.wav	l	1250	CAT_S	3	1	S_SH	0	2	122	F1	460	SIGNblend_50s50h.wav	l	2911	CAT_S	4	1	S_SH	0	2	122	F1	461	SIGNblend_60s40h.wav	l	1322	CAT_S	5	1	S_SH	0	2	122	F1	462	SIGNblend_20s80h.wav	a	1431	CAT_S	1	0	S_SH	0	2	122	F1	463	SIGNblend_20s80h.wav	a	1173	CAT_S	1	0	S_SH	0	2	122	F1	464	SIGNblend_80s20h.wav	l	1067	CAT_S	7	1	S_SH	0	2	122	F1	465	SIGNblend_40s60h.wav	a	1863	CAT_S	3	0	S_SH	0	2	122	F1	466	SIGNblend_70s30h.wav	l	1220	CAT_S	6	1	S_SH	0	2	122	F1	467	SIGNblend_30s70h.wav	a	1074	CAT_S	2	0	S_SH	0	2	122	F1	468	SIGNblend_50s50h.wav	l	1166	CAT_S	4	1	S_SH	0	2	122	F1	469	SIGNblend_60s40h.wav	l	1067	CAT_S	5	1	S_SH	0	2	122	F1	470	SIGNblend_40s60h.wav	l	1142	CAT_S	3	1	S_SH	0	2	122	F1	471	SIGNblend_30s70h.wav	a	1211	CAT_S	2	0	S_SH	0	2	122	F1	472	SIGNblend_30s70h.wav	a	1384	CAT_S	2	0	S_SH	0	2	122	F1	473	SIGNblend_40s60h.wav	a	1195	CAT_S	3	0	S_SH	0	2	122	F1	474	SIGNblend_60s40h.wav	l	1230	CAT_S	5	1	S_SH	0	2	122	F1	475	SIGNblend_80s20h.wav	l	1300	CAT_S	7	1	S_SH	0	2	122	F1	476	SIGNblend_40s60h.wav	l	1288	CAT_S	3	1	S_SH	0	2	122	F1	477	SIGNblend_30s70h.wav	a	1341	CAT_S	2	0	S_SH	0	2	122	F1	478	SIGNblend_50s50h.wav	l	1248	CAT_S	4	1	S_SH	0	2	122	F1	479	SIGNblend_20s80h.wav	a	1244	CAT_S	1	0	S_SH	0	2	122	F1	480	SIGNblend_30s70h.wav	a	1106	CAT_S	2	0	S_SH	0	2	122	F1	481	SIGNblend_50s50h.wav	l	1141	CAT_S	4	1	S_SH	0	2	122	F1	482	SIGNblend_20s80h.wav	a	1362	CAT_S	1	0	S_SH	0	2	122	F1	483	SIGNblend_60s40h.wav	l	1213	CAT_S	5	1	S_SH	0	2	122	F1	484	SIGNblend_50s50h.wav	l	1328	CAT_S	4	1	S_SH	0	2	122	F1	485	SIGNblend_50s50h.wav	l	1174	CAT_S	4	1	S_SH	0	2	122	F1	486	SIGNblend_40s60h.wav	l	1187	CAT_S	3	1	S_SH	0	2	122	F1	487	SIGNblend_40s60h.wav	l	1191	CAT_S	3	1	S_SH	0	2	122	F1	488	SIGNblend_60s40h.wav	l	1002	CAT_S	5	1	S_SH	0	2	122	F1	489	SIGNblend_20s80h.wav	a	1000	CAT_S	1	0	S_SH	0	2	122	F1	490	SIGNblend_50s50h.wav	l	1270	CAT_S	4	1	S_SH	0	2	122	F1	491	SIGNblend_70s30h.wav	l	1360	CAT_S	6	1	S_SH	0	2	122	F1	492	SIGNblend_30s70h.wav	a	1259	CAT_S	2	0	S_SH	0	2	122	F1	493	SIGNblend_20s80h.wav	a	1273	CAT_S	1	0	S_SH	0	2	122	F1	494	SIGNblend_20s80h.wav	a	1276	CAT_S	1	0	S_SH	0	2	122	F1	495	SIGNblend_50s50h.wav	l	1586	CAT_S	4	1	S_SH	0	2	122	F1	496	SIGNblend_50s50h.wav	l	1450	CAT_S	4	1	S_SH	0	2	122	F1	497	SIGNblend_50s50h.wav	l	1186	CAT_S	4	1	S_SH	0	2	122	F1	498	SIGNblend_20s80h.wav	a	1069	CAT_S	1	0	S_SH	0	2	122	F1	499	SIGNblend_80s20h.wav	l	1162	CAT_S	7	1	S_SH	0	2	122	F1	500	SIGNblend_30s70h.wav	a	1256	CAT_S	2	0	S_SH	0	2	122	F1	501	SIGNblend_70s30h.wav	l	1228	CAT_S	6	1	S_SH	0	2	122	F1	502	SIGNblend_30s70h.wav	a	1137	CAT_S	2	0	S_SH	0	2	122	F1	503	SIGNblend_40s60h.wav	l	1301	CAT_S	3	1	S_SH	0	2	122	F1	504	SIGNblend_70s30h.wav	l	1226	CAT_S	6	1	S_SH	0	2	122	F1	505	SIGNblend_60s40h.wav	l	1158	CAT_S	5	1	S_SH	0	2	122	F1	506	SIGNblend_20s80h.wav	a	1236	CAT_S	1	0	S_SH	0	2	122	F1	507	SIGNblend_80s20h.wav	l	1200	CAT_S	7	1	S_SH	0	2	122	F1	508	SIGNblend_30s70h.wav	a	1132	CAT_S	2	0	S_SH	0	2	122	F1	509	SIGNblend_20s80h.wav	a	1201	CAT_S	1	0	S_SH	0	2	122	F1	510	SIGNblend_40s60h.wav	l	1165	CAT_S	3	1	S_SH	0	2	122	F1	511	SIGNblend_80s20h.wav	l	1290	CAT_S	7	1	S_SH	0	2	122	F1	512	SIGNblend_30s70h.wav	a	1246	CAT_S	2	0	S_SH	0	2	125	F16	201	SIGNblend_30s70h.wav	a	1701	CAT_S	2	1	S_SH	1	2	125	F16	202	SIGNblend_50s50h.wav	a	1584	CAT_S	4	1	S_SH	1	2	125	F16	203	SIGNblend_60s40h.wav	a	1563	CAT_S	5	1	S_SH	1	2	125	F16	204	SIGNblend_70s30h.wav	a	1492	CAT_S	6	1	S_SH	1	2	125	F16	205	SIGNblend_40s60h.wav	a	1538	CAT_S	3	1	S_SH	1	2	125	F16	206	SIGNblend_50s50h.wav	a	1533	CAT_S	4	1	S_SH	1	2	125	F16	207	SIGNblend_80s20h.wav	a	1488	CAT_S	7	1	S_SH	1	2	125	F16	208	SIGNblend_20s80h.wav	l	1382	CAT_S	1	0	S_SH	1	2	125	F16	209	SIGNblend_50s50h.wav	a	1200	CAT_S	4	1	S_SH	1	2	125	F16	210	SIGNblend_60s40h.wav	a	1212	CAT_S	5	1	S_SH	1	2	125	F16	211	SIGNblend_70s30h.wav	a	1345	CAT_S	6	1	S_SH	1	2	125	F16	212	SIGNblend_60s40h.wav	a	1315	CAT_S	5	1	S_SH	1	2	125	F16	213	SIGNblend_20s80h.wav	l	1255	CAT_S	1	0	S_SH	1	2	125	F16	214	SIGNblend_30s70h.wav	l	1282	CAT_S	2	0	S_SH	1	2	125	F16	215	SIGNblend_40s60h.wav	a	1638	CAT_S	3	1	S_SH	1	2	125	F16	216	SIGNblend_50s50h.wav	a	1342	CAT_S	4	1	S_SH	1	2	125	F16	217	SIGNblend_80s20h.wav	a	1409	CAT_S	7	1	S_SH	1	2	125	F16	218	SIGNblend_70s30h.wav	a	1386	CAT_S	6	1	S_SH	1	2	125	F16	219	SIGNblend_20s80h.wav	l	1268	CAT_S	1	0	S_SH	1	2	125	F16	220	SIGNblend_30s70h.wav	l	1270	CAT_S	2	0	S_SH	1	2	125	F16	221	SIGNblend_50s50h.wav	a	1140	CAT_S	4	1	S_SH	1	2	125	F16	222	SIGNblend_20s80h.wav	l	1528	CAT_S	1	0	S_SH	1	2	125	F16	223	SIGNblend_60s40h.wav	a	1339	CAT_S	5	1	S_SH	1	2	125	F16	224	SIGNblend_80s20h.wav	a	1223	CAT_S	7	1	S_SH	1	2	125	F16	225	SIGNblend_20s80h.wav	l	1219	CAT_S	1	0	S_SH	1	2	125	F16	226	SIGNblend_50s50h.wav	a	1217	CAT_S	4	1	S_SH	1	2	125	F16	227	SIGNblend_30s70h.wav	l	1052	CAT_S	2	0	S_SH	1	2	125	F16	228	SIGNblend_20s80h.wav	a	1105	CAT_S	1	1	S_SH	1	2	125	F16	229	SIGNblend_40s60h.wav	a	1371	CAT_S	3	1	S_SH	1	2	125	F16	230	SIGNblend_50s50h.wav	a	1174	CAT_S	4	1	S_SH	1	2	125	F16	231	SIGNblend_30s70h.wav	a	2194	CAT_S	2	1	S_SH	1	2	125	F16	232	SIGNblend_40s60h.wav	a	1507	CAT_S	3	1	S_SH	1	2	125	F16	233	SIGNblend_70s30h.wav	a	1319	CAT_S	6	1	S_SH	1	2	125	F16	234	SIGNblend_30s70h.wav	a	1314	CAT_S	2	1	S_SH	1	2	125	F16	235	SIGNblend_50s50h.wav	a	1439	CAT_S	4	1	S_SH	1	2	125	F16	236	SIGNblend_40s60h.wav	a	1422	CAT_S	3	1	S_SH	1	2	125	F16	237	SIGNblend_40s60h.wav	a	1319	CAT_S	3	1	S_SH	1	2	125	F16	238	SIGNblend_40s60h.wav	a	1739	CAT_S	3	1	S_SH	1	2	125	F16	239	SIGNblend_20s80h.wav	a	1445	CAT_S	1	1	S_SH	1	2	125	F16	240	SIGNblend_30s70h.wav	a	1437	CAT_S	2	1	S_SH	1	2	125	F16	241	SIGNblend_60s40h.wav	a	1333	CAT_S	5	1	S_SH	1	2	125	F16	242	SIGNblend_20s80h.wav	l	1399	CAT_S	1	0	S_SH	1	2	125	F16	243	SIGNblend_40s60h.wav	a	1176	CAT_S	3	1	S_SH	1	2	125	F16	244	SIGNblend_80s20h.wav	a	1212	CAT_S	7	1	S_SH	1	2	125	F16	245	SIGNblend_50s50h.wav	a	1200	CAT_S	4	1	S_SH	1	2	125	F16	246	SIGNblend_30s70h.wav	a	1420	CAT_S	2	1	S_SH	1	2	125	F16	247	SIGNblend_20s80h.wav	l	1291	CAT_S	1	0	S_SH	1	2	125	F16	248	SIGNblend_60s40h.wav	a	1280	CAT_S	5	1	S_SH	1	2	125	F16	249	SIGNblend_40s60h.wav	a	1182	CAT_S	3	1	S_SH	1	2	125	F16	250	SIGNblend_20s80h.wav	l	1337	CAT_S	1	0	S_SH	1	2	125	F16	251	SIGNblend_40s60h.wav	a	1230	CAT_S	3	1	S_SH	1	2	125	F16	252	SIGNblend_70s30h.wav	a	1169	CAT_S	6	1	S_SH	1	2	125	F16	253	SIGNblend_80s20h.wav	a	1085	CAT_S	7	1	S_SH	1	2	125	F16	254	SIGNblend_30s70h.wav	l	1202	CAT_S	2	0	S_SH	1	2	125	F16	255	SIGNblend_30s70h.wav	l	1692	CAT_S	2	0	S_SH	1	2	125	F16	256	SIGNblend_50s50h.wav	a	1289	CAT_S	4	1	S_SH	1	2	125	F16	457	SIGNblend_20s80h.wav	l	1232	CAT_SH	1	0	S_SH	1	1	125	F16	458	SIGNblend_20s80h.wav	l	1324	CAT_SH	1	0	S_SH	1	1	125	F16	459	SIGNblend_80s20h.wav	a	1008	CAT_SH	7	1	S_SH	1	1	125	F16	460	SIGNblend_60s40h.wav	a	955	CAT_SH	5	1	S_SH	1	1	125	F16	461	SIGNblend_60s40h.wav	a	880	CAT_SH	5	1	S_SH	1	1	125	F16	462	SIGNblend_30s70h.wav	l	1261	CAT_SH	2	0	S_SH	1	1	125	F16	463	SIGNblend_30s70h.wav	l	1201	CAT_SH	2	0	S_SH	1	1	125	F16	464	SIGNblend_50s50h.wav	a	1015	CAT_SH	4	1	S_SH	1	1	125	F16	465	SIGNblend_80s20h.wav	a	924	CAT_SH	7	1	S_SH	1	1	125	F16	466	SIGNblend_80s20h.wav	a	863	CAT_SH	7	1	S_SH	1	1	125	F16	467	SIGNblend_60s40h.wav	a	901	CAT_SH	5	1	S_SH	1	1	125	F16	468	SIGNblend_80s20h.wav	a	1073	CAT_SH	7	1	S_SH	1	1	125	F16	469	SIGNblend_30s70h.wav	l	1037	CAT_SH	2	0	S_SH	1	1	125	F16	470	SIGNblend_70s30h.wav	a	875	CAT_SH	6	1	S_SH	1	1	125	F16	471	SIGNblend_80s20h.wav	a	1022	CAT_SH	7	1	S_SH	1	1	125	F16	472	SIGNblend_80s20h.wav	a	923	CAT_SH	7	1	S_SH	1	1	125	F16	473	SIGNblend_80s20h.wav	a	992	CAT_SH	7	1	S_SH	1	1	125	F16	474	SIGNblend_20s80h.wav	l	1133	CAT_SH	1	0	S_SH	1	1	125	F16	475	SIGNblend_80s20h.wav	a	842	CAT_SH	7	1	S_SH	1	1	125	F16	476	SIGNblend_80s20h.wav	a	783	CAT_SH	7	1	S_SH	1	1	125	F16	477	SIGNblend_50s50h.wav	a	772	CAT_SH	4	1	S_SH	1	1	125	F16	478	SIGNblend_80s20h.wav	a	991	CAT_SH	7	1	S_SH	1	1	125	F16	479	SIGNblend_30s70h.wav	l	996	CAT_SH	2	0	S_SH	1	1	125	F16	480	SIGNblend_60s40h.wav	a	841	CAT_SH	5	1	S_SH	1	1	125	F16	481	SIGNblend_80s20h.wav	a	853	CAT_SH	7	1	S_SH	1	1	125	F16	482	SIGNblend_80s20h.wav	a	881	CAT_SH	7	1	S_SH	1	1	125	F16	483	SIGNblend_70s30h.wav	a	847	CAT_SH	6	1	S_SH	1	1	125	F16	484	SIGNblend_40s60h.wav	l	986	CAT_SH	3	0	S_SH	1	1	125	F16	485	SIGNblend_80s20h.wav	a	831	CAT_SH	7	1	S_SH	1	1	125	F16	486	SIGNblend_40s60h.wav	a	827	CAT_SH	3	1	S_SH	1	1	125	F16	487	SIGNblend_80s20h.wav	a	824	CAT_SH	7	1	S_SH	1	1	125	F16	488	SIGNblend_20s80h.wav	l	1053	CAT_SH	1	0	S_SH	1	1	125	F16	489	SIGNblend_80s20h.wav	a	841	CAT_SH	7	1	S_SH	1	1	125	F16	490	SIGNblend_40s60h.wav	l	999	CAT_SH	3	0	S_SH	1	1	125	F16	491	SIGNblend_80s20h.wav	a	962	CAT_SH	7	1	S_SH	1	1	125	F16	492	SIGNblend_20s80h.wav	l	839	CAT_SH	1	0	S_SH	1	1	125	F16	493	SIGNblend_50s50h.wav	a	1061	CAT_SH	4	1	S_SH	1	1	125	F16	494	SIGNblend_70s30h.wav	a	1001	CAT_SH	6	1	S_SH	1	1	125	F16	495	SIGNblend_70s30h.wav	a	966	CAT_SH	6	1	S_SH	1	1	125	F16	496	SIGNblend_80s20h.wav	a	915	CAT_SH	7	1	S_SH	1	1	125	F16	497	SIGNblend_80s20h.wav	a	904	CAT_SH	7	1	S_SH	1	1	125	F16	498	SIGNblend_80s20h.wav	a	700	CAT_SH	7	1	S_SH	1	1	125	F16	499	SIGNblend_40s60h.wav	a	800	CAT_SH	3	1	S_SH	1	1	125	F16	500	SIGNblend_30s70h.wav	a	717	CAT_SH	2	1	S_SH	1	1	125	F16	501	SIGNblend_80s20h.wav	a	1193	CAT_SH	7	1	S_SH	1	1	125	F16	502	SIGNblend_80s20h.wav	a	1349	CAT_SH	7	1	S_SH	1	1	125	F16	503	SIGNblend_80s20h.wav	a	912	CAT_SH	7	1	S_SH	1	1	125	F16	504	SIGNblend_80s20h.wav	a	742	CAT_SH	7	1	S_SH	1	1	125	F16	505	SIGNblend_50s50h.wav	l	1105	CAT_SH	4	0	S_SH	1	1	125	F16	506	SIGNblend_60s40h.wav	a	966	CAT_SH	5	1	S_SH	1	1	125	F16	507	SIGNblend_80s20h.wav	a	940	CAT_SH	7	1	S_SH	1	1	125	F16	508	SIGNblend_50s50h.wav	a	713	CAT_SH	4	1	S_SH	1	1	125	F16	509	SIGNblend_80s20h.wav	a	1004	CAT_SH	7	1	S_SH	1	1	125	F16	510	SIGNblend_80s20h.wav	a	858	CAT_SH	7	1	S_SH	1	1	125	F16	511	SIGNblend_70s30h.wav	a	774	CAT_SH	6	1	S_SH	1	1	125	F16	512	SIGNblend_40s60h.wav	l	866	CAT_SH	3	0	S_SH	1	1	126	F15	201	SIGNblend_80s20h.wav	l	2463	CAT_SH	7	1	SH_S	1	1	126	F15	202	SIGNblend_80s20h.wav	l	1660	CAT_SH	7	1	SH_S	1	1	126	F15	203	SIGNblend_80s20h.wav	l	1484	CAT_SH	7	1	SH_S	1	1	126	F15	204	SIGNblend_40s60h.wav	a	1384	CAT_SH	3	0	SH_S	1	1	126	F15	205	SIGNblend_50s50h.wav	a	1187	CAT_SH	4	0	SH_S	1	1	126	F15	206	SIGNblend_50s50h.wav	a	1398	CAT_SH	4	0	SH_S	1	1	126	F15	207	SIGNblend_30s70h.wav	a	1480	CAT_SH	2	0	SH_S	1	1	126	F15	208	SIGNblend_40s60h.wav	a	1733	CAT_SH	3	0	SH_S	1	1	126	F15	209	SIGNblend_70s30h.wav	l	1225	CAT_SH	6	1	SH_S	1	1	126	F15	210	SIGNblend_20s80h.wav	a	1053	CAT_SH	1	0	SH_S	1	1	126	F15	211	SIGNblend_30s70h.wav	a	1105	CAT_SH	2	0	SH_S	1	1	126	F15	212	SIGNblend_50s50h.wav	a	1326	CAT_SH	4	0	SH_S	1	1	126	F15	213	SIGNblend_80s20h.wav	l	1096	CAT_SH	7	1	SH_S	1	1	126	F15	214	SIGNblend_80s20h.wav	l	966	CAT_SH	7	1	SH_S	1	1	126	F15	215	SIGNblend_60s40h.wav	l	1145	CAT_SH	5	1	SH_S	1	1	126	F15	216	SIGNblend_80s20h.wav	l	1095	CAT_SH	7	1	SH_S	1	1	126	F15	217	SIGNblend_80s20h.wav	l	971	CAT_SH	7	1	SH_S	1	1	126	F15	218	SIGNblend_40s60h.wav	a	912	CAT_SH	3	0	SH_S	1	1	126	F15	219	SIGNblend_20s80h.wav	a	866	CAT_SH	1	0	SH_S	1	1	126	F15	220	SIGNblend_80s20h.wav	l	991	CAT_SH	7	1	SH_S	1	1	126	F15	221	SIGNblend_80s20h.wav	l	1002	CAT_SH	7	1	SH_S	1	1	126	F15	222	SIGNblend_20s80h.wav	a	943	CAT_SH	1	0	SH_S	1	1	126	F15	223	SIGNblend_80s20h.wav	l	1035	CAT_SH	7	1	SH_S	1	1	126	F15	224	SIGNblend_80s20h.wav	a	1168	CAT_SH	7	0	SH_S	1	1	126	F15	225	SIGNblend_60s40h.wav	a	1316	CAT_SH	5	0	SH_S	1	1	126	F15	226	SIGNblend_80s20h.wav	l	1792	CAT_SH	7	1	SH_S	1	1	126	F15	227	SIGNblend_30s70h.wav	a	1426	CAT_SH	2	0	SH_S	1	1	126	F15	228	SIGNblend_60s40h.wav	a	1376	CAT_SH	5	0	SH_S	1	1	126	F15	229	SIGNblend_80s20h.wav	l	1065	CAT_SH	7	1	SH_S	1	1	126	F15	230	SIGNblend_70s30h.wav	l	1254	CAT_SH	6	1	SH_S	1	1	126	F15	231	SIGNblend_50s50h.wav	a	1130	CAT_SH	4	0	SH_S	1	1	126	F15	232	SIGNblend_70s30h.wav	l	1470	CAT_SH	6	1	SH_S	1	1	126	F15	233	SIGNblend_80s20h.wav	l	1436	CAT_SH	7	1	SH_S	1	1	126	F15	234	SIGNblend_80s20h.wav	l	1284	CAT_SH	7	1	SH_S	1	1	126	F15	235	SIGNblend_80s20h.wav	l	1144	CAT_SH	7	1	SH_S	1	1	126	F15	236	SIGNblend_80s20h.wav	l	1125	CAT_SH	7	1	SH_S	1	1	126	F15	237	SIGNblend_20s80h.wav	a	858	CAT_SH	1	0	SH_S	1	1	126	F15	238	SIGNblend_30s70h.wav	a	885	CAT_SH	2	0	SH_S	1	1	126	F15	239	SIGNblend_80s20h.wav	l	970	CAT_SH	7	1	SH_S	1	1	126	F15	240	SIGNblend_80s20h.wav	l	1013	CAT_SH	7	1	SH_S	1	1	126	F15	241	SIGNblend_30s70h.wav	a	1049	CAT_SH	2	0	SH_S	1	1	126	F15	242	SIGNblend_80s20h.wav	l	1398	CAT_SH	7	1	SH_S	1	1	126	F15	243	SIGNblend_80s20h.wav	l	1095	CAT_SH	7	1	SH_S	1	1	126	F15	244	SIGNblend_80s20h.wav	l	948	CAT_SH	7	1	SH_S	1	1	126	F15	245	SIGNblend_50s50h.wav	a	856	CAT_SH	4	0	SH_S	1	1	126	F15	246	SIGNblend_40s60h.wav	a	932	CAT_SH	3	0	SH_S	1	1	126	F15	247	SIGNblend_20s80h.wav	a	800	CAT_SH	1	0	SH_S	1	1	126	F15	248	SIGNblend_40s60h.wav	a	820	CAT_SH	3	0	SH_S	1	1	126	F15	249	SIGNblend_70s30h.wav	l	904	CAT_SH	6	1	SH_S	1	1	126	F15	250	SIGNblend_80s20h.wav	l	861	CAT_SH	7	1	SH_S	1	1	126	F15	251	SIGNblend_60s40h.wav	l	1664	CAT_SH	5	1	SH_S	1	1	126	F15	252	SIGNblend_80s20h.wav	l	1095	CAT_SH	7	1	SH_S	1	1	126	F15	253	SIGNblend_60s40h.wav	a	874	CAT_SH	5	0	SH_S	1	1	126	F15	254	SIGNblend_80s20h.wav	l	1014	CAT_SH	7	1	SH_S	1	1	126	F15	255	SIGNblend_70s30h.wav	l	1066	CAT_SH	6	1	SH_S	1	1	126	F15	256	SIGNblend_80s20h.wav	l	941	CAT_SH	7	1	SH_S	1	1	126	F15	457	SIGNblend_40s60h.wav	a	1482	CAT_S	3	0	SH_S	1	2	126	F15	458	SIGNblend_20s80h.wav	a	1104	CAT_S	1	0	SH_S	1	2	126	F15	459	SIGNblend_20s80h.wav	a	1509	CAT_S	1	0	SH_S	1	2	126	F15	460	SIGNblend_60s40h.wav	l	1168	CAT_S	5	1	SH_S	1	2	126	F15	461	SIGNblend_30s70h.wav	a	933	CAT_S	2	0	SH_S	1	2	126	F15	462	SIGNblend_80s20h.wav	l	898	CAT_S	7	1	SH_S	1	2	126	F15	463	SIGNblend_50s50h.wav	a	895	CAT_S	4	0	SH_S	1	2	126	F15	464	SIGNblend_30s70h.wav	a	915	CAT_S	2	0	SH_S	1	2	126	F15	465	SIGNblend_40s60h.wav	a	871	CAT_S	3	0	SH_S	1	2	126	F15	466	SIGNblend_60s40h.wav	l	1044	CAT_S	5	1	SH_S	1	2	126	F15	467	SIGNblend_30s70h.wav	a	1114	CAT_S	2	0	SH_S	1	2	126	F15	468	SIGNblend_20s80h.wav	a	1462	CAT_S	1	0	SH_S	1	2	126	F15	469	SIGNblend_50s50h.wav	l	1523	CAT_S	4	1	SH_S	1	2	126	F15	470	SIGNblend_70s30h.wav	l	1446	CAT_S	6	1	SH_S	1	2	126	F15	471	SIGNblend_50s50h.wav	a	934	CAT_S	4	0	SH_S	1	2	126	F15	472	SIGNblend_30s70h.wav	a	1113	CAT_S	2	0	SH_S	1	2	126	F15	473	SIGNblend_40s60h.wav	a	1030	CAT_S	3	0	SH_S	1	2	126	F15	474	SIGNblend_30s70h.wav	a	1050	CAT_S	2	0	SH_S	1	2	126	F15	475	SIGNblend_60s40h.wav	l	1007	CAT_S	5	1	SH_S	1	2	126	F15	476	SIGNblend_50s50h.wav	l	1620	CAT_S	4	1	SH_S	1	2	126	F15	477	SIGNblend_30s70h.wav	a	1003	CAT_S	2	0	SH_S	1	2	126	F15	478	SIGNblend_40s60h.wav	a	1056	CAT_S	3	0	SH_S	1	2	126	F15	479	SIGNblend_20s80h.wav	a	917	CAT_S	1	0	SH_S	1	2	126	F15	480	SIGNblend_60s40h.wav	l	1057	CAT_S	5	1	SH_S	1	2	126	F15	481	SIGNblend_50s50h.wav	l	1222	CAT_S	4	1	SH_S	1	2	126	F15	482	SIGNblend_40s60h.wav	a	803	CAT_S	3	0	SH_S	1	2	126	F15	483	SIGNblend_20s80h.wav	a	815	CAT_S	1	0	SH_S	1	2	126	F15	484	SIGNblend_20s80h.wav	a	828	CAT_S	1	0	SH_S	1	2	126	F15	485	SIGNblend_40s60h.wav	a	872	CAT_S	3	0	SH_S	1	2	126	F15	486	SIGNblend_50s50h.wav	a	941	CAT_S	4	0	SH_S	1	2	126	F15	487	SIGNblend_30s70h.wav	a	1050	CAT_S	2	0	SH_S	1	2	126	F15	488	SIGNblend_20s80h.wav	a	998	CAT_S	1	0	SH_S	1	2	126	F15	489	SIGNblend_80s20h.wav	l	1011	CAT_S	7	1	SH_S	1	2	126	F15	490	SIGNblend_50s50h.wav	l	1343	CAT_S	4	1	SH_S	1	2	126	F15	491	SIGNblend_60s40h.wav	l	1148	CAT_S	5	1	SH_S	1	2	126	F15	492	SIGNblend_50s50h.wav	a	1504	CAT_S	4	0	SH_S	1	2	126	F15	493	SIGNblend_40s60h.wav	a	1028	CAT_S	3	0	SH_S	1	2	126	F15	494	SIGNblend_20s80h.wav	a	866	CAT_S	1	0	SH_S	1	2	126	F15	495	SIGNblend_70s30h.wav	l	998	CAT_S	6	1	SH_S	1	2	126	F15	496	SIGNblend_30s70h.wav	a	1051	CAT_S	2	0	SH_S	1	2	126	F15	497	SIGNblend_20s80h.wav	a	1078	CAT_S	1	0	SH_S	1	2	126	F15	498	SIGNblend_30s70h.wav	a	965	CAT_S	2	0	SH_S	1	2	126	F15	499	SIGNblend_40s60h.wav	a	1009	CAT_S	3	0	SH_S	1	2	126	F15	500	SIGNblend_80s20h.wav	l	980	CAT_S	7	1	SH_S	1	2	126	F15	501	SIGNblend_50s50h.wav	a	1281	CAT_S	4	0	SH_S	1	2	126	F15	502	SIGNblend_20s80h.wav	a	1372	CAT_S	1	0	SH_S	1	2	126	F15	503	SIGNblend_70s30h.wav	l	1054	CAT_S	6	1	SH_S	1	2	126	F15	504	SIGNblend_40s60h.wav	a	963	CAT_S	3	0	SH_S	1	2	126	F15	505	SIGNblend_70s30h.wav	l	1167	CAT_S	6	1	SH_S	1	2	126	F15	506	SIGNblend_30s70h.wav	a	940	CAT_S	2	0	SH_S	1	2	126	F15	507	SIGNblend_80s20h.wav	l	912	CAT_S	7	1	SH_S	1	2	126	F15	508	SIGNblend_70s30h.wav	l	1110	CAT_S	6	1	SH_S	1	2	126	F15	509	SIGNblend_60s40h.wav	a	1586	CAT_S	5	0	SH_S	1	2	126	F15	510	SIGNblend_50s50h.wav	a	875	CAT_S	4	0	SH_S	1	2	126	F15	511	SIGNblend_40s60h.wav	a	1081	CAT_S	3	0	SH_S	1	2	126	F15	512	SIGNblend_80s20h.wav	l	1493	CAT_S	7	1	SH_S	1	2	128	F3	201	SIGNblend_20s80h.wav	l	3699	CAT_SH	1	0	SH_S	1	1	128	F3	202	SIGNblend_50s50h.wav	a	1624	CAT_SH	4	1	SH_S	1	1	128	F3	203	SIGNblend_80s20h.wav	a	1496	CAT_SH	7	1	SH_S	1	1	128	F3	204	SIGNblend_60s40h.wav	a	1636	CAT_SH	5	1	SH_S	1	1	128	F3	205	SIGNblend_80s20h.wav	a	2325	CAT_SH	7	1	SH_S	1	1	128	F3	206	SIGNblend_30s70h.wav	a	3120	CAT_SH	2	1	SH_S	1	1	128	F3	207	SIGNblend_80s20h.wav	a	2236	CAT_SH	7	1	SH_S	1	1	128	F3	208	SIGNblend_80s20h.wav	a	4772	CAT_SH	7	1	SH_S	1	1	128	F3	209	SIGNblend_60s40h.wav	l	2013	CAT_SH	5	0	SH_S	1	1	128	F3	210	SIGNblend_80s20h.wav	a	1638	CAT_SH	7	1	SH_S	1	1	128	F3	211	SIGNblend_50s50h.wav	a	2300	CAT_SH	4	1	SH_S	1	1	128	F3	212	SIGNblend_80s20h.wav	a	2314	CAT_SH	7	1	SH_S	1	1	128	F3	213	SIGNblend_80s20h.wav	a	1900	CAT_SH	7	1	SH_S	1	1	128	F3	214	SIGNblend_80s20h.wav	a	2378	CAT_SH	7	1	SH_S	1	1	128	F3	215	SIGNblend_20s80h.wav	l	1620	CAT_SH	1	0	SH_S	1	1	128	F3	216	SIGNblend_80s20h.wav	a	1531	CAT_SH	7	1	SH_S	1	1	128	F3	217	SIGNblend_20s80h.wav	l	1431	CAT_SH	1	0	SH_S	1	1	128	F3	218	SIGNblend_80s20h.wav	a	1477	CAT_SH	7	1	SH_S	1	1	128	F3	219	SIGNblend_40s60h.wav	l	2347	CAT_SH	3	0	SH_S	1	1	128	F3	220	SIGNblend_70s30h.wav	a	1541	CAT_SH	6	1	SH_S	1	1	128	F3	221	SIGNblend_70s30h.wav	a	1753	CAT_SH	6	1	SH_S	1	1	128	F3	222	SIGNblend_80s20h.wav	a	1932	CAT_SH	7	1	SH_S	1	1	128	F3	223	SIGNblend_80s20h.wav	a	2240	CAT_SH	7	1	SH_S	1	1	128	F3	224	SIGNblend_20s80h.wav	l	1671	CAT_SH	1	0	SH_S	1	1	128	F3	225	SIGNblend_30s70h.wav	l	1693	CAT_SH	2	0	SH_S	1	1	128	F3	226	SIGNblend_80s20h.wav	a	1416	CAT_SH	7	1	SH_S	1	1	128	F3	227	SIGNblend_70s30h.wav	a	1506	CAT_SH	6	1	SH_S	1	1	128	F3	228	SIGNblend_80s20h.wav	a	2262	CAT_SH	7	1	SH_S	1	1	128	F3	229	SIGNblend_80s20h.wav	a	1676	CAT_SH	7	1	SH_S	1	1	128	F3	230	SIGNblend_30s70h.wav	l	1451	CAT_SH	2	0	SH_S	1	1	128	F3	231	SIGNblend_40s60h.wav	l	1448	CAT_SH	3	0	SH_S	1	1	128	F3	232	SIGNblend_40s60h.wav	l	3215	CAT_SH	3	0	SH_S	1	1	128	F3	233	SIGNblend_70s30h.wav	a	1471	CAT_SH	6	1	SH_S	1	1	128	F3	234	SIGNblend_80s20h.wav	a	1348	CAT_SH	7	1	SH_S	1	1	128	F3	235	SIGNblend_50s50h.wav	a	1408	CAT_SH	4	1	SH_S	1	1	128	F3	236	SIGNblend_40s60h.wav	l	2041	CAT_SH	3	0	SH_S	1	1	128	F3	237	SIGNblend_60s40h.wav	a	1502	CAT_SH	5	1	SH_S	1	1	128	F3	238	SIGNblend_80s20h.wav	a	1580	CAT_SH	7	1	SH_S	1	1	128	F3	239	SIGNblend_30s70h.wav	l	1438	CAT_SH	2	0	SH_S	1	1	128	F3	240	SIGNblend_50s50h.wav	l	2036	CAT_SH	4	0	SH_S	1	1	128	F3	241	SIGNblend_20s80h.wav	l	1709	CAT_SH	1	0	SH_S	1	1	128	F3	242	SIGNblend_80s20h.wav	a	1207	CAT_SH	7	1	SH_S	1	1	128	F3	243	SIGNblend_80s20h.wav	a	1371	CAT_SH	7	1	SH_S	1	1	128	F3	244	SIGNblend_80s20h.wav	a	1253	CAT_SH	7	1	SH_S	1	1	128	F3	245	SIGNblend_80s20h.wav	a	1251	CAT_SH	7	1	SH_S	1	1	128	F3	246	SIGNblend_30s70h.wav	l	1335	CAT_SH	2	0	SH_S	1	1	128	F3	247	SIGNblend_80s20h.wav	a	1195	CAT_SH	7	1	SH_S	1	1	128	F3	248	SIGNblend_40s60h.wav	l	1334	CAT_SH	3	0	SH_S	1	1	128	F3	249	SIGNblend_80s20h.wav	a	1211	CAT_SH	7	1	SH_S	1	1	128	F3	250	SIGNblend_60s40h.wav	l	1094	CAT_SH	5	0	SH_S	1	1	128	F3	251	SIGNblend_70s30h.wav	a	1252	CAT_SH	6	1	SH_S	1	1	128	F3	252	SIGNblend_50s50h.wav	a	1127	CAT_SH	4	1	SH_S	1	1	128	F3	253	SIGNblend_80s20h.wav	a	1052	CAT_SH	7	1	SH_S	1	1	128	F3	254	SIGNblend_60s40h.wav	l	1264	CAT_SH	5	0	SH_S	1	1	128	F3	255	SIGNblend_80s20h.wav	a	1283	CAT_SH	7	1	SH_S	1	1	128	F3	256	SIGNblend_80s20h.wav	a	1136	CAT_SH	7	1	SH_S	1	1	128	F3	457	SIGNblend_50s50h.wav	a	1860	CAT_S	4	1	SH_S	1	2	128	F3	458	SIGNblend_70s30h.wav	a	1307	CAT_S	6	1	SH_S	1	2	128	F3	459	SIGNblend_20s80h.wav	l	1200	CAT_S	1	0	SH_S	1	2	128	F3	460	SIGNblend_20s80h.wav	l	1123	CAT_S	1	0	SH_S	1	2	128	F3	461	SIGNblend_80s20h.wav	a	1103	CAT_S	7	1	SH_S	1	2	128	F3	462	SIGNblend_50s50h.wav	a	1092	CAT_S	4	1	SH_S	1	2	128	F3	463	SIGNblend_60s40h.wav	a	1231	CAT_S	5	1	SH_S	1	2	128	F3	464	SIGNblend_50s50h.wav	a	1301	CAT_S	4	1	SH_S	1	2	128	F3	465	SIGNblend_70s30h.wav	a	1288	CAT_S	6	1	SH_S	1	2	128	F3	466	SIGNblend_40s60h.wav	a	1311	CAT_S	3	1	SH_S	1	2	128	F3	467	SIGNblend_30s70h.wav	l	1082	CAT_S	2	0	SH_S	1	2	128	F3	468	SIGNblend_40s60h.wav	l	976	CAT_S	3	0	SH_S	1	2	128	F3	469	SIGNblend_50s50h.wav	l	1221	CAT_S	4	0	SH_S	1	2	128	F3	470	SIGNblend_50s50h.wav	l	1257	CAT_S	4	0	SH_S	1	2	128	F3	471	SIGNblend_30s70h.wav	l	1389	CAT_S	2	0	SH_S	1	2	128	F3	472	SIGNblend_50s50h.wav	l	3639	CAT_S	4	0	SH_S	1	2	128	F3	473	SIGNblend_50s50h.wav	l	1357	CAT_S	4	0	SH_S	1	2	128	F3	474	SIGNblend_60s40h.wav	a	1288	CAT_S	5	1	SH_S	1	2	128	F3	475	SIGNblend_50s50h.wav	a	1198	CAT_S	4	1	SH_S	1	2	128	F3	476	SIGNblend_40s60h.wav	a	1162	CAT_S	3	1	SH_S	1	2	128	F3	477	SIGNblend_20s80h.wav	l	1238	CAT_S	1	0	SH_S	1	2	128	F3	478	SIGNblend_30s70h.wav	l	1187	CAT_S	2	0	SH_S	1	2	128	F3	479	SIGNblend_70s30h.wav	a	1126	CAT_S	6	1	SH_S	1	2	128	F3	480	SIGNblend_80s20h.wav	a	1004	CAT_S	7	1	SH_S	1	2	128	F3	481	SIGNblend_80s20h.wav	a	1041	CAT_S	7	1	SH_S	1	2	128	F3	482	SIGNblend_40s60h.wav	l	2445	CAT_S	3	0	SH_S	1	2	128	F3	483	SIGNblend_80s20h.wav	a	1300	CAT_S	7	1	SH_S	1	2	128	F3	484	SIGNblend_30s70h.wav	l	1729	CAT_S	2	0	SH_S	1	2	128	F3	485	SIGNblend_60s40h.wav	a	1507	CAT_S	5	1	SH_S	1	2	128	F3	486	SIGNblend_20s80h.wav	l	1360	CAT_S	1	0	SH_S	1	2	128	F3	487	SIGNblend_30s70h.wav	l	1442	CAT_S	2	0	SH_S	1	2	128	F3	488	SIGNblend_30s70h.wav	l	1747	CAT_S	2	0	SH_S	1	2	128	F3	489	SIGNblend_20s80h.wav	l	1541	CAT_S	1	0	SH_S	1	2	128	F3	490	SIGNblend_30s70h.wav	l	1329	CAT_S	2	0	SH_S	1	2	128	F3	491	SIGNblend_20s80h.wav	l	2020	CAT_S	1	0	SH_S	1	2	128	F3	492	SIGNblend_40s60h.wav	a	1706	CAT_S	3	1	SH_S	1	2	128	F3	493	SIGNblend_60s40h.wav	a	1480	CAT_S	5	1	SH_S	1	2	128	F3	494	SIGNblend_20s80h.wav	l	1357	CAT_S	1	0	SH_S	1	2	128	F3	495	SIGNblend_50s50h.wav	l	1791	CAT_S	4	0	SH_S	1	2	128	F3	496	SIGNblend_60s40h.wav	a	2689	CAT_S	5	1	SH_S	1	2	128	F3	497	SIGNblend_60s40h.wav	a	1382	CAT_S	5	1	SH_S	1	2	128	F3	498	SIGNblend_80s20h.wav	a	1240	CAT_S	7	1	SH_S	1	2	128	F3	499	SIGNblend_30s70h.wav	l	2380	CAT_S	2	0	SH_S	1	2	128	F3	500	SIGNblend_50s50h.wav	a	2261	CAT_S	4	1	SH_S	1	2	128	F3	501	SIGNblend_40s60h.wav	a	3339	CAT_S	3	1	SH_S	1	2	128	F3	502	SIGNblend_70s30h.wav	a	1480	CAT_S	6	1	SH_S	1	2	128	F3	503	SIGNblend_40s60h.wav	l	1436	CAT_S	3	0	SH_S	1	2	128	F3	504	SIGNblend_20s80h.wav	l	1252	CAT_S	1	0	SH_S	1	2	128	F3	505	SIGNblend_30s70h.wav	l	2081	CAT_S	2	0	SH_S	1	2	128	F3	506	SIGNblend_40s60h.wav	a	1581	CAT_S	3	1	SH_S	1	2	128	F3	507	SIGNblend_20s80h.wav	a	2270	CAT_S	1	1	SH_S	1	2	128	F3	508	SIGNblend_70s30h.wav	a	1573	CAT_S	6	1	SH_S	1	2	128	F3	509	SIGNblend_30s70h.wav	l	1448	CAT_S	2	0	SH_S	1	2	128	F3	510	SIGNblend_20s80h.wav	l	1421	CAT_S	1	0	SH_S	1	2	128	F3	511	SIGNblend_40s60h.wav	l	1566	CAT_S	3	0	SH_S	1	2	128	F3	512	SIGNblend_40s60h.wav	l	1201	CAT_S	3	0	SH_S	1	2	135	F4	201	SIGNblend_30s70h.wav	a	1399	CAT_S	2	0	S_SH	1	2	135	F4	202	SIGNblend_50s50h.wav	l	1174	CAT_S	4	1	S_SH	1	2	135	F4	203	SIGNblend_40s60h.wav	l	1258	CAT_S	3	1	S_SH	1	2	135	F4	204	SIGNblend_20s80h.wav	a	1167	CAT_S	1	0	S_SH	1	2	135	F4	205	SIGNblend_30s70h.wav	a	1596	CAT_S	2	0	S_SH	1	2	135	F4	206	SIGNblend_50s50h.wav	l	1149	CAT_S	4	1	S_SH	1	2	135	F4	207	SIGNblend_40s60h.wav	l	1505	CAT_S	3	1	S_SH	1	2	135	F4	208	SIGNblend_80s20h.wav	l	1190	CAT_S	7	1	S_SH	1	2	135	F4	209	SIGNblend_70s30h.wav	l	1084	CAT_S	6	1	S_SH	1	2	135	F4	210	SIGNblend_50s50h.wav	l	990	CAT_S	4	1	S_SH	1	2	135	F4	211	SIGNblend_50s50h.wav	l	948	CAT_S	4	1	S_SH	1	2	135	F4	212	SIGNblend_60s40h.wav	l	768	CAT_S	5	1	S_SH	1	2	135	F4	213	SIGNblend_50s50h.wav	l	932	CAT_S	4	1	S_SH	1	2	135	F4	214	SIGNblend_20s80h.wav	a	825	CAT_S	1	0	S_SH	1	2	135	F4	215	SIGNblend_40s60h.wav	l	1020	CAT_S	3	1	S_SH	1	2	135	F4	216	SIGNblend_40s60h.wav	l	977	CAT_S	3	1	S_SH	1	2	135	F4	217	SIGNblend_50s50h.wav	l	901	CAT_S	4	1	S_SH	1	2	135	F4	218	SIGNblend_70s30h.wav	l	866	CAT_S	6	1	S_SH	1	2	135	F4	219	SIGNblend_50s50h.wav	l	862	CAT_S	4	1	S_SH	1	2	135	F4	220	SIGNblend_30s70h.wav	a	761	CAT_S	2	0	S_SH	1	2	135	F4	221	SIGNblend_40s60h.wav	a	950	CAT_S	3	0	S_SH	1	2	135	F4	222	SIGNblend_40s60h.wav	l	1226	CAT_S	3	1	S_SH	1	2	135	F4	223	SIGNblend_30s70h.wav	a	895	CAT_S	2	0	S_SH	1	2	135	F4	224	SIGNblend_30s70h.wav	a	812	CAT_S	2	0	S_SH	1	2	135	F4	225	SIGNblend_20s80h.wav	a	879	CAT_S	1	0	S_SH	1	2	135	F4	226	SIGNblend_30s70h.wav	a	836	CAT_S	2	0	S_SH	1	2	135	F4	227	SIGNblend_20s80h.wav	a	1120	CAT_S	1	0	S_SH	1	2	135	F4	228	SIGNblend_30s70h.wav	a	956	CAT_S	2	0	S_SH	1	2	135	F4	229	SIGNblend_20s80h.wav	a	856	CAT_S	1	0	S_SH	1	2	135	F4	230	SIGNblend_60s40h.wav	l	828	CAT_S	5	1	S_SH	1	2	135	F4	231	SIGNblend_40s60h.wav	a	1042	CAT_S	3	0	S_SH	1	2	135	F4	232	SIGNblend_20s80h.wav	a	1046	CAT_S	1	0	S_SH	1	2	135	F4	233	SIGNblend_30s70h.wav	l	1153	CAT_S	2	1	S_SH	1	2	135	F4	234	SIGNblend_50s50h.wav	l	1047	CAT_S	4	1	S_SH	1	2	135	F4	235	SIGNblend_30s70h.wav	l	1002	CAT_S	2	1	S_SH	1	2	135	F4	236	SIGNblend_80s20h.wav	l	1373	CAT_S	7	1	S_SH	1	2	135	F4	237	SIGNblend_70s30h.wav	l	1040	CAT_S	6	1	S_SH	1	2	135	F4	238	SIGNblend_80s20h.wav	l	909	CAT_S	7	1	S_SH	1	2	135	F4	239	SIGNblend_70s30h.wav	l	960	CAT_S	6	1	S_SH	1	2	135	F4	240	SIGNblend_40s60h.wav	a	917	CAT_S	3	0	S_SH	1	2	135	F4	241	SIGNblend_20s80h.wav	l	802	CAT_S	1	1	S_SH	1	2	135	F4	242	SIGNblend_40s60h.wav	l	1556	CAT_S	3	1	S_SH	1	2	135	F4	243	SIGNblend_20s80h.wav	a	847	CAT_S	1	0	S_SH	1	2	135	F4	244	SIGNblend_60s40h.wav	l	1020	CAT_S	5	1	S_SH	1	2	135	F4	245	SIGNblend_60s40h.wav	l	1177	CAT_S	5	1	S_SH	1	2	135	F4	246	SIGNblend_80s20h.wav	l	1117	CAT_S	7	1	S_SH	1	2	135	F4	247	SIGNblend_60s40h.wav	l	1104	CAT_S	5	1	S_SH	1	2	135	F4	248	SIGNblend_70s30h.wav	l	861	CAT_S	6	1	S_SH	1	2	135	F4	249	SIGNblend_50s50h.wav	l	977	CAT_S	4	1	S_SH	1	2	135	F4	250	SIGNblend_40s60h.wav	a	1014	CAT_S	3	0	S_SH	1	2	135	F4	251	SIGNblend_20s80h.wav	a	969	CAT_S	1	0	S_SH	1	2	135	F4	252	SIGNblend_30s70h.wav	a	861	CAT_S	2	0	S_SH	1	2	135	F4	253	SIGNblend_20s80h.wav	a	826	CAT_S	1	0	S_SH	1	2	135	F4	254	SIGNblend_50s50h.wav	l	911	CAT_S	4	1	S_SH	1	2	135	F4	255	SIGNblend_80s20h.wav	l	1082	CAT_S	7	1	S_SH	1	2	135	F4	256	SIGNblend_60s40h.wav	l	975	CAT_S	5	1	S_SH	1	2	135	F4	457	SIGNblend_80s20h.wav	l	1665	CAT_SH	7	1	S_SH	1	1	135	F4	458	SIGNblend_80s20h.wav	l	1150	CAT_SH	7	1	S_SH	1	1	135	F4	459	SIGNblend_60s40h.wav	l	1042	CAT_SH	5	1	S_SH	1	1	135	F4	460	SIGNblend_80s20h.wav	l	895	CAT_SH	7	1	S_SH	1	1	135	F4	461	SIGNblend_80s20h.wav	l	867	CAT_SH	7	1	S_SH	1	1	135	F4	462	SIGNblend_80s20h.wav	l	872	CAT_SH	7	1	S_SH	1	1	135	F4	463	SIGNblend_20s80h.wav	a	874	CAT_SH	1	0	S_SH	1	1	135	F4	464	SIGNblend_80s20h.wav	l	832	CAT_SH	7	1	S_SH	1	1	135	F4	465	SIGNblend_40s60h.wav	a	788	CAT_SH	3	0	S_SH	1	1	135	F4	466	SIGNblend_80s20h.wav	l	856	CAT_SH	7	1	S_SH	1	1	135	F4	467	SIGNblend_60s40h.wav	l	878	CAT_SH	5	1	S_SH	1	1	135	F4	468	SIGNblend_20s80h.wav	a	794	CAT_SH	1	0	S_SH	1	1	135	F4	469	SIGNblend_80s20h.wav	l	792	CAT_SH	7	1	S_SH	1	1	135	F4	470	SIGNblend_80s20h.wav	l	836	CAT_SH	7	1	S_SH	1	1	135	F4	471	SIGNblend_30s70h.wav	a	889	CAT_SH	2	0	S_SH	1	1	135	F4	472	SIGNblend_80s20h.wav	l	957	CAT_SH	7	1	S_SH	1	1	135	F4	473	SIGNblend_30s70h.wav	a	786	CAT_SH	2	0	S_SH	1	1	135	F4	474	SIGNblend_60s40h.wav	l	885	CAT_SH	5	1	S_SH	1	1	135	F4	475	SIGNblend_20s80h.wav	a	786	CAT_SH	1	0	S_SH	1	1	135	F4	476	SIGNblend_80s20h.wav	l	855	CAT_SH	7	1	S_SH	1	1	135	F4	477	SIGNblend_80s20h.wav	l	980	CAT_SH	7	1	S_SH	1	1	135	F4	478	SIGNblend_50s50h.wav	l	1055	CAT_SH	4	1	S_SH	1	1	135	F4	479	SIGNblend_80s20h.wav	l	795	CAT_SH	7	1	S_SH	1	1	135	F4	480	SIGNblend_30s70h.wav	a	752	CAT_SH	2	0	S_SH	1	1	135	F4	481	SIGNblend_80s20h.wav	l	781	CAT_SH	7	1	S_SH	1	1	135	F4	482	SIGNblend_70s30h.wav	l	786	CAT_SH	6	1	S_SH	1	1	135	F4	483	SIGNblend_80s20h.wav	l	813	CAT_SH	7	1	S_SH	1	1	135	F4	484	SIGNblend_40s60h.wav	a	1041	CAT_SH	3	0	S_SH	1	1	135	F4	485	SIGNblend_50s50h.wav	l	759	CAT_SH	4	1	S_SH	1	1	135	F4	486	SIGNblend_60s40h.wav	l	820	CAT_SH	5	1	S_SH	1	1	135	F4	487	SIGNblend_40s60h.wav	l	1239	CAT_SH	3	1	S_SH	1	1	135	F4	488	SIGNblend_80s20h.wav	l	1187	CAT_SH	7	1	S_SH	1	1	135	F4	489	SIGNblend_80s20h.wav	l	1072	CAT_SH	7	1	S_SH	1	1	135	F4	490	SIGNblend_40s60h.wav	a	948	CAT_SH	3	0	S_SH	1	1	135	F4	491	SIGNblend_60s40h.wav	l	977	CAT_SH	5	1	S_SH	1	1	135	F4	492	SIGNblend_30s70h.wav	a	790	CAT_SH	2	0	S_SH	1	1	135	F4	493	SIGNblend_50s50h.wav	l	1059	CAT_SH	4	1	S_SH	1	1	135	F4	494	SIGNblend_70s30h.wav	l	1048	CAT_SH	6	1	S_SH	1	1	135	F4	495	SIGNblend_80s20h.wav	l	860	CAT_SH	7	1	S_SH	1	1	135	F4	496	SIGNblend_50s50h.wav	l	960	CAT_SH	4	1	S_SH	1	1	135	F4	497	SIGNblend_80s20h.wav	l	813	CAT_SH	7	1	S_SH	1	1	135	F4	498	SIGNblend_70s30h.wav	l	1017	CAT_SH	6	1	S_SH	1	1	135	F4	499	SIGNblend_20s80h.wav	a	814	CAT_SH	1	0	S_SH	1	1	135	F4	500	SIGNblend_40s60h.wav	a	1212	CAT_SH	3	0	S_SH	1	1	135	F4	501	SIGNblend_70s30h.wav	l	1097	CAT_SH	6	1	S_SH	1	1	135	F4	502	SIGNblend_80s20h.wav	l	931	CAT_SH	7	1	S_SH	1	1	135	F4	503	SIGNblend_80s20h.wav	l	865	CAT_SH	7	1	S_SH	1	1	135	F4	504	SIGNblend_70s30h.wav	l	844	CAT_SH	6	1	S_SH	1	1	135	F4	505	SIGNblend_80s20h.wav	l	970	CAT_SH	7	1	S_SH	1	1	135	F4	506	SIGNblend_50s50h.wav	l	1096	CAT_SH	4	1	S_SH	1	1	135	F4	507	SIGNblend_80s20h.wav	l	956	CAT_SH	7	1	S_SH	1	1	135	F4	508	SIGNblend_80s20h.wav	l	833	CAT_SH	7	1	S_SH	1	1	135	F4	509	SIGNblend_80s20h.wav	l	925	CAT_SH	7	1	S_SH	1	1	135	F4	510	SIGNblend_80s20h.wav	l	825	CAT_SH	7	1	S_SH	1	1	135	F4	511	SIGNblend_20s80h.wav	a	1103	CAT_SH	1	0	S_SH	1	1	135	F4	512	SIGNblend_30s70h.wav	a	964	CAT_SH	2	0	S_SH	1	1	136	F6	201	SIGNblend_20s80h.wav	l	3002	CAT_SH	1	0	SH_S	1	1	136	F6	202	SIGNblend_80s20h.wav	a	1642	CAT_SH	7	1	SH_S	1	1	136	F6	203	SIGNblend_80s20h.wav	a	1394	CAT_SH	7	1	SH_S	1	1	136	F6	204	SIGNblend_80s20h.wav	a	1450	CAT_SH	7	1	SH_S	1	1	136	F6	205	SIGNblend_70s30h.wav	a	2178	CAT_SH	6	1	SH_S	1	1	136	F6	206	SIGNblend_80s20h.wav	a	1412	CAT_SH	7	1	SH_S	1	1	136	F6	207	SIGNblend_80s20h.wav	a	1442	CAT_SH	7	1	SH_S	1	1	136	F6	208	SIGNblend_50s50h.wav	a	1473	CAT_SH	4	1	SH_S	1	1	136	F6	209	SIGNblend_80s20h.wav	a	1945	CAT_SH	7	1	SH_S	1	1	136	F6	210	SIGNblend_20s80h.wav	l	1898	CAT_SH	1	0	SH_S	1	1	136	F6	211	SIGNblend_60s40h.wav	a	1423	CAT_SH	5	1	SH_S	1	1	136	F6	212	SIGNblend_50s50h.wav	a	1264	CAT_SH	4	1	SH_S	1	1	136	F6	213	SIGNblend_30s70h.wav	l	1371	CAT_SH	2	0	SH_S	1	1	136	F6	214	SIGNblend_40s60h.wav	l	1382	CAT_SH	3	0	SH_S	1	1	136	F6	215	SIGNblend_80s20h.wav	a	1334	CAT_SH	7	1	SH_S	1	1	136	F6	216	SIGNblend_80s20h.wav	a	1210	CAT_SH	7	1	SH_S	1	1	136	F6	217	SIGNblend_70s30h.wav	a	1152	CAT_SH	6	1	SH_S	1	1	136	F6	218	SIGNblend_60s40h.wav	a	1012	CAT_SH	5	1	SH_S	1	1	136	F6	219	SIGNblend_70s30h.wav	a	1759	CAT_SH	6	1	SH_S	1	1	136	F6	220	SIGNblend_80s20h.wav	a	1136	CAT_SH	7	1	SH_S	1	1	136	F6	221	SIGNblend_30s70h.wav	l	1124	CAT_SH	2	0	SH_S	1	1	136	F6	222	SIGNblend_80s20h.wav	a	1129	CAT_SH	7	1	SH_S	1	1	136	F6	223	SIGNblend_80s20h.wav	a	1213	CAT_SH	7	1	SH_S	1	1	136	F6	224	SIGNblend_80s20h.wav	a	1353	CAT_SH	7	1	SH_S	1	1	136	F6	225	SIGNblend_80s20h.wav	a	1333	CAT_SH	7	1	SH_S	1	1	136	F6	226	SIGNblend_80s20h.wav	a	1224	CAT_SH	7	1	SH_S	1	1	136	F6	227	SIGNblend_80s20h.wav	a	1356	CAT_SH	7	1	SH_S	1	1	136	F6	228	SIGNblend_60s40h.wav	a	1463	CAT_SH	5	1	SH_S	1	1	136	F6	229	SIGNblend_40s60h.wav	l	2013	CAT_SH	3	0	SH_S	1	1	136	F6	230	SIGNblend_80s20h.wav	a	1444	CAT_SH	7	1	SH_S	1	1	136	F6	231	SIGNblend_30s70h.wav	l	2028	CAT_SH	2	0	SH_S	1	1	136	F6	232	SIGNblend_80s20h.wav	a	1396	CAT_SH	7	1	SH_S	1	1	136	F6	233	SIGNblend_80s20h.wav	a	1125	CAT_SH	7	1	SH_S	1	1	136	F6	234	SIGNblend_50s50h.wav	a	1569	CAT_SH	4	1	SH_S	1	1	136	F6	235	SIGNblend_80s20h.wav	a	1482	CAT_SH	7	1	SH_S	1	1	136	F6	236	SIGNblend_30s70h.wav	l	1302	CAT_SH	2	0	SH_S	1	1	136	F6	237	SIGNblend_40s60h.wav	l	1187	CAT_SH	3	0	SH_S	1	1	136	F6	238	SIGNblend_80s20h.wav	a	1320	CAT_SH	7	1	SH_S	1	1	136	F6	239	SIGNblend_80s20h.wav	a	1125	CAT_SH	7	1	SH_S	1	1	136	F6	240	SIGNblend_30s70h.wav	l	2888	CAT_SH	2	0	SH_S	1	1	136	F6	241	SIGNblend_20s80h.wav	l	1319	CAT_SH	1	0	SH_S	1	1	136	F6	242	SIGNblend_50s50h.wav	a	1113	CAT_SH	4	1	SH_S	1	1	136	F6	243	SIGNblend_50s50h.wav	a	1190	CAT_SH	4	1	SH_S	1	1	136	F6	244	SIGNblend_80s20h.wav	a	1098	CAT_SH	7	1	SH_S	1	1	136	F6	245	SIGNblend_60s40h.wav	a	999	CAT_SH	5	1	SH_S	1	1	136	F6	246	SIGNblend_20s80h.wav	l	1244	CAT_SH	1	0	SH_S	1	1	136	F6	247	SIGNblend_80s20h.wav	a	1144	CAT_SH	7	1	SH_S	1	1	136	F6	248	SIGNblend_40s60h.wav	a	1291	CAT_SH	3	1	SH_S	1	1	136	F6	249	SIGNblend_40s60h.wav	l	1319	CAT_SH	3	0	SH_S	1	1	136	F6	250	SIGNblend_80s20h.wav	a	1068	CAT_SH	7	1	SH_S	1	1	136	F6	251	SIGNblend_80s20h.wav	a	1952	CAT_SH	7	1	SH_S	1	1	136	F6	252	SIGNblend_70s30h.wav	a	1163	CAT_SH	6	1	SH_S	1	1	136	F6	253	SIGNblend_20s80h.wav	l	1024	CAT_SH	1	0	SH_S	1	1	136	F6	254	SIGNblend_60s40h.wav	a	828	CAT_SH	5	1	SH_S	1	1	136	F6	255	SIGNblend_80s20h.wav	a	936	CAT_SH	7	1	SH_S	1	1	136	F6	256	SIGNblend_70s30h.wav	a	1076	CAT_SH	6	1	SH_S	1	1	136	F6	457	SIGNblend_60s40h.wav	a	1156	CAT_S	5	1	SH_S	1	2	136	F6	458	SIGNblend_30s70h.wav	a	1130	CAT_S	2	1	SH_S	1	2	136	F6	459	SIGNblend_20s80h.wav	a	1166	CAT_S	1	1	SH_S	1	2	136	F6	460	SIGNblend_50s50h.wav	a	906	CAT_S	4	1	SH_S	1	2	136	F6	461	SIGNblend_30s70h.wav	a	1463	CAT_S	2	1	SH_S	1	2	136	F6	462	SIGNblend_20s80h.wav	l	1308	CAT_S	1	0	SH_S	1	2	136	F6	463	SIGNblend_50s50h.wav	a	897	CAT_S	4	1	SH_S	1	2	136	F6	464	SIGNblend_70s30h.wav	a	829	CAT_S	6	1	SH_S	1	2	136	F6	465	SIGNblend_20s80h.wav	l	984	CAT_S	1	0	SH_S	1	2	136	F6	466	SIGNblend_80s20h.wav	a	757	CAT_S	7	1	SH_S	1	2	136	F6	467	SIGNblend_60s40h.wav	a	818	CAT_S	5	1	SH_S	1	2	136	F6	468	SIGNblend_70s30h.wav	a	871	CAT_S	6	1	SH_S	1	2	136	F6	469	SIGNblend_30s70h.wav	l	866	CAT_S	2	0	SH_S	1	2	136	F6	470	SIGNblend_20s80h.wav	l	976	CAT_S	1	0	SH_S	1	2	136	F6	471	SIGNblend_20s80h.wav	l	965	CAT_S	1	0	SH_S	1	2	136	F6	472	SIGNblend_40s60h.wav	a	1169	CAT_S	3	1	SH_S	1	2	136	F6	473	SIGNblend_20s80h.wav	l	942	CAT_S	1	0	SH_S	1	2	136	F6	474	SIGNblend_20s80h.wav	l	937	CAT_S	1	0	SH_S	1	2	136	F6	475	SIGNblend_50s50h.wav	a	919	CAT_S	4	1	SH_S	1	2	136	F6	476	SIGNblend_50s50h.wav	a	828	CAT_S	4	1	SH_S	1	2	136	F6	477	SIGNblend_50s50h.wav	a	863	CAT_S	4	1	SH_S	1	2	136	F6	478	SIGNblend_50s50h.wav	a	764	CAT_S	4	1	SH_S	1	2	136	F6	479	SIGNblend_80s20h.wav	a	929	CAT_S	7	1	SH_S	1	2	136	F6	480	SIGNblend_70s30h.wav	a	725	CAT_S	6	1	SH_S	1	2	136	F6	481	SIGNblend_40s60h.wav	a	842	CAT_S	3	1	SH_S	1	2	136	F6	482	SIGNblend_30s70h.wav	a	862	CAT_S	2	1	SH_S	1	2	136	F6	483	SIGNblend_80s20h.wav	a	970	CAT_S	7	1	SH_S	1	2	136	F6	484	SIGNblend_60s40h.wav	a	879	CAT_S	5	1	SH_S	1	2	136	F6	485	SIGNblend_40s60h.wav	a	1012	CAT_S	3	1	SH_S	1	2	136	F6	486	SIGNblend_30s70h.wav	a	1194	CAT_S	2	1	SH_S	1	2	136	F6	487	SIGNblend_20s80h.wav	l	932	CAT_S	1	0	SH_S	1	2	136	F6	488	SIGNblend_60s40h.wav	a	858	CAT_S	5	1	SH_S	1	2	136	F6	489	SIGNblend_20s80h.wav	l	951	CAT_S	1	0	SH_S	1	2	136	F6	490	SIGNblend_50s50h.wav	a	892	CAT_S	4	1	SH_S	1	2	136	F6	491	SIGNblend_60s40h.wav	a	815	CAT_S	5	1	SH_S	1	2	136	F6	492	SIGNblend_30s70h.wav	l	997	CAT_S	2	0	SH_S	1	2	136	F6	493	SIGNblend_40s60h.wav	a	874	CAT_S	3	1	SH_S	1	2	136	F6	494	SIGNblend_20s80h.wav	l	1077	CAT_S	1	0	SH_S	1	2	136	F6	495	SIGNblend_50s50h.wav	a	970	CAT_S	4	1	SH_S	1	2	136	F6	496	SIGNblend_40s60h.wav	a	990	CAT_S	3	1	SH_S	1	2	136	F6	497	SIGNblend_40s60h.wav	a	930	CAT_S	3	1	SH_S	1	2	136	F6	498	SIGNblend_30s70h.wav	l	928	CAT_S	2	0	SH_S	1	2	136	F6	499	SIGNblend_30s70h.wav	l	1027	CAT_S	2	0	SH_S	1	2	136	F6	500	SIGNblend_40s60h.wav	a	1159	CAT_S	3	1	SH_S	1	2	136	F6	501	SIGNblend_60s40h.wav	a	1050	CAT_S	5	1	SH_S	1	2	136	F6	502	SIGNblend_50s50h.wav	a	840	CAT_S	4	1	SH_S	1	2	136	F6	503	SIGNblend_80s20h.wav	a	867	CAT_S	7	1	SH_S	1	2	136	F6	504	SIGNblend_40s60h.wav	a	905	CAT_S	3	1	SH_S	1	2	136	F6	505	SIGNblend_40s60h.wav	a	869	CAT_S	3	1	SH_S	1	2	136	F6	506	SIGNblend_30s70h.wav	l	857	CAT_S	2	0	SH_S	1	2	136	F6	507	SIGNblend_50s50h.wav	a	792	CAT_S	4	1	SH_S	1	2	136	F6	508	SIGNblend_70s30h.wav	a	844	CAT_S	6	1	SH_S	1	2	136	F6	509	SIGNblend_80s20h.wav	a	785	CAT_S	7	1	SH_S	1	2	136	F6	510	SIGNblend_70s30h.wav	a	1053	CAT_S	6	1	SH_S	1	2	136	F6	511	SIGNblend_30s70h.wav	l	1018	CAT_S	2	0	SH_S	1	2	136	F6	512	SIGNblend_40s60h.wav	l	877	CAT_S	3	0	SH_S	1	2	139	F14	201	SIGNblend_80s20h.wav	a	2985	CAT_SH	7	0	SH_S	0	1	1